subject,acc,RT,Code,seq,actionseq,timeseq,trial
28306,1,0.813175699906424,1,1,1,1,39
28306,1,0.602387600112706,2,2,2,2,39
28306,0,0.839984700083733,3,3,2,3,39
28306,1,0.509251600131392,1,1,1,4,39
28306,0,1.04738100012764,1,3,2,5,39
28306,1,0.722530100028962,2,2,2,6,39
28306,1,0.643982799956575,2,2,2,7,39
28306,1,1.07253409991972,2,3,2,8,39
28306,1,0.419971999945119,1,1,1,9,39
28306,1,1.15320119983517,1,1,1,10,39
28306,1,0.425390199990943,2,2,2,11,39
28306,1,0.382025300059468,2,3,2,12,39
28306,1,0.941356900148094,2,3,2,13,39
28306,1,0.565504800062627,2,2,2,14,39
28306,1,0.81301649985835,1,1,1,15,39
28306,1,0.475102100055665,2,2,2,16,39
28306,1,0.430259099928662,2,3,2,17,39
28306,1,0.61138469981961,1,1,1,18,39
28306,1,0.649410099955276,1,1,1,19,39
28306,1,0.629242799943313,2,2,2,20,39
28306,1,0.61057520005852,2,3,2,21,39
28306,1,0.472451700130478,2,2,2,22,39
28306,1,0.427664699964225,2,3,2,23,39
28306,1,0.561205199919641,1,1,1,24,39
28306,1,0.488940699957311,1,1,1,25,39
28306,1,0.467473300173879,2,3,2,26,39
28306,1,0.454901900142431,2,2,2,27,39
28306,1,0.68313719984144,1,1,1,28,39
28306,1,0.541820700047538,2,2,2,29,39
28306,0,0.774482500040904,1,3,2,30,39
28306,1,0.445968199986964,2,3,2,31,39
28306,1,0.474432799965143,2,2,2,32,39
28306,1,0.541961000068113,1,1,1,33,39
28306,1,0.646432999987155,1,1,1,34,39
28306,1,0.442952600074932,2,3,2,35,39
28306,1,0.640033399919048,1,1,1,36,39
28306,1,0.436602799920365,2,2,2,37,39
28306,1,0.433341399999335,2,2,2,38,39
28306,1,0.533791000023484,2,3,2,39,39
28306,1,0.585286400048062,1,1,1,40,78
28306,1,0.632125900126994,1,2,1,41,78
28306,0,0.636506600072607,1,3,2,42,78
28306,0,0.64115529996343,1,4,2,43,78
28306,0,0.629197200061753,1,5,3,44,78
28306,0,0.44281670008786,1,6,3,45,78
28306,0,1.21549919992685,2,5,3,46,78
28306,1,0.780932300025597,1,1,1,47,78
28306,1,0.603990099858493,2,4,2,48,78
28306,1,0.929643699899316,1,2,1,49,78
28306,1,0.954608999891207,3,5,3,50,78
28306,1,1.4182379997801,3,6,3,51,78
28306,1,0.543920699972659,2,3,2,52,78
28306,-1,-1,-1,3,2,53,78
28306,1,0.866459700046107,3,6,3,54,78
28306,1,0.709502799902111,1,2,1,55,78
28306,1,0.423522299854085,1,1,1,56,78
28306,1,0.525063700042665,2,4,2,57,78
28306,1,0.574753199936822,1,1,1,58,78
28306,1,0.885898599866778,1,2,1,59,78
28306,1,0.568431799998507,2,3,2,60,78
28306,1,0.783443799940869,2,4,2,61,78
28306,1,1.43852089997381,3,5,3,62,78
28306,1,0.347112900111824,3,6,3,63,78
28306,1,0.531414899975061,1,1,1,64,78
28306,1,0.508003299823031,2,3,2,65,78
28306,1,0.717973100021482,3,5,3,66,78
28306,1,1.04719309997745,1,2,1,67,78
28306,1,0.995327200042084,2,4,2,68,78
28306,1,0.697889200178906,2,4,2,69,78
28306,1,0.851523600053042,1,2,1,70,78
28306,1,0.592036599991843,3,6,3,71,78
28306,1,0.614154400071129,1,2,1,72,78
28306,1,0.53196689998731,1,1,1,73,78
28306,1,0.532016499899328,2,3,2,74,78
28306,1,0.693254399811849,3,6,3,75,78
28306,1,0.3837148998864,3,5,3,76,78
28306,1,0.662531599868089,2,3,2,77,78
28306,1,0.602453700033948,3,5,3,78,78
28306,1,0.680498099885881,1,1,1,79,78
28306,1,0.650843899929896,2,4,2,80,78
28306,1,0.646929500158876,3,6,3,81,78
28306,1,0.514798699878156,3,6,3,82,78
28306,1,0.564133200095966,1,2,1,83,78
28306,1,0.619948700070381,2,3,2,84,78
28306,1,0.761949500069022,2,4,2,85,78
28306,1,0.553266699891537,1,1,1,86,78
28306,1,0.849423400126398,3,5,3,87,78
28306,1,0.725053000031039,1,2,1,88,78
28306,1,0.630814400035888,2,4,2,89,78
28306,1,0.611421000212431,3,5,3,90,78
28306,1,0.593409999972209,1,1,1,91,78
28306,1,0.552448699949309,3,6,3,92,78
28306,1,0.919873600127175,1,1,1,93,78
28306,1,0.593194500077516,2,3,2,94,78
28306,1,0.471941200084984,2,3,2,95,78
28306,1,0.906879600137472,1,2,1,96,78
28306,1,0.572973200120032,3,5,3,97,78
28306,1,0.837224900024012,2,4,2,98,78
28306,1,0.664906099904329,3,6,3,99,78
28306,1,0.708832700038329,1,2,1,100,78
28306,1,0.590161099797115,1,1,1,101,78
28306,1,0.620916200103238,3,6,3,102,78
28306,1,0.938691599993035,3,5,3,103,78
28306,1,0.754966199863702,3,6,3,104,78
28306,1,0.627350799972191,2,3,2,105,78
28306,1,0.688143600011244,2,4,2,106,78
28306,1,0.491167799802497,2,4,2,107,78
28306,1,0.886092100059614,3,5,3,108,78
28306,1,0.504649200011045,2,3,2,109,78
28306,1,0.522549899993464,1,2,1,110,78
28306,1,0.459760199999437,1,2,1,111,78
28306,1,0.607853300170973,1,1,1,112,78
28306,1,0.709834299981594,2,4,2,113,78
28306,1,0.455881600035354,1,1,1,114,78
28306,1,0.547729999991134,3,6,3,115,78
28306,1,0.619689100189134,2,4,2,116,78
28306,1,0.585211900062859,3,5,3,117,78
28306,1,0.488434500060976,1,1,1,118,39
28306,0,0.355326799908653,2,2,3,119,39
28306,1,0.618807099992409,3,3,3,120,39
28306,1,0.552629600046203,1,1,1,121,39
28306,1,0.832301300019026,3,3,3,122,39
28306,0,0.701185000129044,1,2,3,123,39
28306,1,0.60721469996497,3,2,3,124,39
28306,1,0.389524400001392,3,3,3,125,39
28306,1,0.452028900152072,1,1,1,126,39
28306,1,0.639794500079006,1,1,1,127,39
28306,1,0.548488900065422,3,2,3,128,39
28306,1,0.38882190012373,3,3,3,129,39
28306,1,0.60346270003356,3,3,3,130,39
28306,1,0.856848699972034,3,2,3,131,39
28306,1,0.59729570010677,1,1,1,132,39
28306,1,0.403203699970618,3,2,3,133,39
28306,1,0.4733543000184,3,3,3,134,39
28306,1,0.764248999999836,1,1,1,135,39
28306,1,0.57146260002628,1,1,1,136,39
28306,1,0.53127140016295,3,2,3,137,39
28306,1,0.508531499886885,3,3,3,138,39
28306,1,0.645601600175723,3,2,3,139,39
28306,1,0.650393900228664,3,3,3,140,39
28306,1,0.958513900171965,1,1,1,141,39
28306,1,0.446689900010824,1,1,1,142,39
28306,1,0.442751100054011,3,3,3,143,39
28306,1,0.367398899979889,3,2,3,144,39
28306,1,0.574326999951154,1,1,1,145,39
28306,1,0.533523200079799,3,2,3,146,39
28306,1,0.438446199987084,3,3,3,147,39
28306,1,0.459152099909261,3,3,3,148,39
28306,1,0.959256200119853,3,2,3,149,39
28306,1,0.647353800013661,1,1,1,150,39
28306,1,0.475225599948317,1,1,1,151,39
28306,1,0.510570100042969,3,3,3,152,39
28306,1,0.640675799921155,1,1,1,153,39
28306,1,0.573455600067973,3,2,3,154,39
28306,1,0.620616900036111,3,2,3,155,39
28306,1,0.641626499826089,3,3,3,156,39
28306,0,0.426839499967173,1,1,2,157,39
28306,1,0.472484199795872,2,2,2,158,39
28306,0,0.563962299842387,3,3,1,159,39
28306,1,0.87543119979091,2,1,2,160,39
28306,1,0.710709500126541,1,3,1,161,39
28306,1,0.624445699853823,2,2,2,162,39
28306,1,0.430038899881765,2,2,2,163,39
28306,1,0.61056930013001,1,3,1,164,39
28306,1,0.424657399998978,2,1,2,165,39
28306,1,1.30178490001708,2,1,2,166,39
28306,1,0.359507099958137,2,2,2,167,39
28306,1,0.503585200058296,1,3,1,168,39
28306,1,0.538010000018403,1,3,1,169,39
28306,1,0.354676999850199,2,2,2,170,39
28306,1,0.458092699991539,2,1,2,171,39
28306,1,0.574604300083593,2,2,2,172,39
28306,1,0.598171200137585,1,3,1,173,39
28306,1,0.587551100179553,2,1,2,174,39
28306,1,0.474288699915633,2,1,2,175,39
28306,1,0.525973399868235,2,2,2,176,39
28306,1,0.791351099964231,1,3,1,177,39
28306,1,0.502022000029683,2,2,2,178,39
28306,1,0.6238470999524,1,3,1,179,39
28306,1,0.517210200196132,2,1,2,180,39
28306,1,0.558250000001863,2,1,2,181,39
28306,1,0.638550299918279,1,3,1,182,39
28306,1,0.650894599966705,2,2,2,183,39
28306,1,0.494949199957773,2,1,2,184,39
28306,1,0.657662600046024,2,2,2,185,39
28306,1,0.621862599859014,1,3,1,186,39
28306,1,0.794828399783,1,3,1,187,39
28306,1,1.07405950012617,2,2,2,188,39
28306,1,0.749216199852526,2,1,2,189,39
28306,1,0.901223300024867,2,1,2,190,39
28306,1,0.494986400008202,1,3,1,191,39
28306,1,0.433910100022331,2,1,2,192,39
28306,1,0.390791099984199,2,2,2,193,39
28306,1,0.317177999997512,2,2,2,194,39
28306,1,0.422703299904242,1,3,1,195,39
28306,0,0.512334600090981,1,1,2,196,78
28306,1,0.51493540010415,2,2,2,197,78
28306,0,0.803579400060698,2,3,3,198,78
28306,0,0.985422299942002,1,4,3,199,78
28306,0,0.784487399971113,3,5,1,200,78
28306,0,0.358790999976918,3,6,1,201,78
28306,1,1.4234787998721,1,5,1,202,78
28306,-1,-1,-1,1,2,203,78
28306,0,1.17457800009288,2,4,3,204,78
28306,0,0.509916299954057,3,2,2,205,78
28306,0,0.752175400033593,3,5,1,206,78
28306,0,0.719964500050992,3,6,1,207,78
28306,0,0.817161400103942,1,3,3,208,78
28306,1,0.823031299980357,3,3,3,209,78
28306,0,0.916167700197548,2,6,1,210,78
28306,1,0.741303900023922,2,2,2,211,78
28306,1,0.84590690000914,2,1,2,212,78
28306,0,0.978129799943417,2,4,3,213,78
28306,1,0.985649899812415,2,1,2,214,78
28306,1,0.408455299912021,2,2,2,215,78
28306,1,0.446596999885514,3,3,3,216,78
28306,0,0.858143700053915,1,4,3,217,78
28306,1,1.07871949998662,1,5,1,218,78
28306,1,0.545673300046474,1,6,1,219,78
28306,1,0.818884500069544,2,1,2,220,78
28306,1,0.528042099904269,3,3,3,221,78
28306,1,0.793368599843234,1,5,1,222,78
28306,0,0.759340699994937,3,2,2,223,78
28306,1,1.25601269979961,3,4,3,224,78
28306,1,0.588136400096118,3,4,3,225,78
28306,1,0.514649000018835,2,2,2,226,78
28306,1,0.636125799966976,1,6,1,227,78
28306,1,0.800734399817884,2,2,2,228,78
28306,1,0.422791299875826,2,1,2,229,78
28306,1,0.579781400039792,3,3,3,230,78
28306,1,0.650302999885753,1,6,1,231,78
28306,1,0.478586600162089,1,5,1,232,78
28306,1,1.05811259988695,3,3,3,233,78
28306,1,1.01356500014663,1,5,1,234,78
28306,1,0.731322299921885,2,1,2,235,78
28306,1,0.916057799942791,3,4,3,236,78
28306,1,0.541424500057474,1,6,1,237,78
28306,1,0.374173100106418,1,6,1,238,78
28306,1,1.06920270016417,2,2,2,239,78
28306,1,0.608206999953836,3,3,3,240,78
28306,1,0.502504199976102,3,4,3,241,78
28306,1,0.944822099991143,2,1,2,242,78
28306,1,0.665275299921632,1,5,1,243,78
28306,1,0.684886100003496,2,2,2,244,78
28306,1,0.79936599987559,3,4,3,245,78
28306,1,1.0054388998542,1,5,1,246,78
28306,1,0.755000100005418,2,1,2,247,78
28306,1,0.963397700106725,1,6,1,248,78
28306,1,0.650600000051782,2,1,2,249,78
28306,1,0.518351400038227,3,3,3,250,78
28306,1,0.63997060013935,3,3,3,251,78
28306,1,0.596538299927488,2,2,2,252,78
28306,1,0.635324200149626,1,5,1,253,78
28306,1,0.639846800127998,3,4,3,254,78
28306,1,0.6927634999156,1,6,1,255,78
28306,1,0.519037300022319,2,2,2,256,78
28306,0,1.03223659982905,1,1,2,257,78
28306,1,0.694144800072536,1,6,1,258,78
28306,1,0.664097599918023,1,5,1,259,78
28306,1,0.747157600009814,1,6,1,260,78
28306,1,0.483349499991164,3,3,3,261,78
28306,1,0.334676100173965,3,4,3,262,78
28306,1,1.04667499987409,3,4,3,263,78
28306,1,0.506672500167042,1,5,1,264,78
28306,1,0.636194700142369,3,3,3,265,78
28306,1,0.704876699950546,2,2,2,266,78
28306,1,1.17144709988497,2,2,2,267,78
28306,1,0.434483800083399,2,1,2,268,78
28306,1,0.663276399951428,3,4,3,269,78
28306,1,0.54674719995819,2,1,2,270,78
28306,1,0.618186700157821,1,6,1,271,78
28306,1,0.904079600004479,3,4,3,272,78
28306,1,0.698097500018775,1,5,1,273,78
28306,0,0.503019200172275,1,1,3,274,39
28306,0,0.425212699919939,1,2,2,275,39
28306,0,0.334910699864849,1,3,3,276,39
28306,0,0.50329769984819,2,1,3,277,39
28306,0,0.609314499888569,2,3,3,278,39
28306,1,0.423407899914309,2,2,2,279,39
28306,1,0.804798300145194,2,2,2,280,39
28306,1,0.498192200204358,3,3,3,281,39
28306,1,1.23660530010238,3,1,3,282,39
28306,1,0.59319270006381,3,1,3,283,39
28306,1,0.687893899856135,2,2,2,284,39
28306,1,0.714588999981061,3,3,3,285,39
28306,1,0.427780099911615,3,3,3,286,39
28306,1,0.68911759997718,2,2,2,287,39
28306,-1,-1,-1,1,3,288,39
28306,1,0.637887600110844,2,2,2,289,39
28306,1,0.466654400108382,3,3,3,290,39
28306,1,0.421915099956095,3,1,3,291,39
28306,1,0.499295799992979,3,1,3,292,39
28306,1,0.50940729980357,2,2,2,293,39
28306,1,0.406928400043398,3,3,3,294,39
28306,1,0.636983300093561,2,2,2,295,39
28306,1,0.481808200012892,3,3,3,296,39
28306,1,0.35672409995459,3,1,3,297,39
28306,1,0.436220099916682,3,1,3,298,39
28306,1,0.577317300019786,3,3,3,299,39
28306,0,0.68867429997772,3,2,2,300,39
28306,1,0.499385999981314,3,1,3,301,39
28306,1,0.469473599921912,2,2,2,302,39
28306,1,0.432567300042138,3,3,3,303,39
28306,1,0.381482199998572,3,3,3,304,39
28306,1,0.659500800073147,2,2,2,305,39
28306,1,0.351757400203496,3,1,3,306,39
28306,1,0.608082400169224,3,1,3,307,39
28306,1,0.437756000086665,3,3,3,308,39
28306,1,0.402764400001615,3,1,3,309,39
28306,1,0.608086199965328,2,2,2,310,39
28306,1,0.614797400077805,2,2,2,311,39
28306,1,0.611324999947101,3,3,3,312,39
28306,0,0.377725699916482,1,1,3,313,78
28306,0,0.50538990017958,1,2,3,314,78
28306,1,0.371020999969915,1,3,1,315,78
28306,1,0.306694800034165,1,4,1,316,78
28306,0,0.452670200029388,1,5,2,317,78
28306,0,0.240622699959204,1,6,2,318,78
28306,1,0.700964199844748,2,5,2,319,78
28306,0,0.82319389982149,2,1,3,320,78
28306,1,0.980652900179848,1,4,1,321,78
28306,0,0.627186399884522,2,2,3,322,78
28306,1,0.64052619994618,2,5,2,323,78
28306,1,0.492877400014549,2,6,2,324,78
28306,1,0.688109199982136,1,3,1,325,78
28306,1,1.21825310005806,1,3,1,326,78
28306,1,0.864160399883986,2,6,2,327,78
28306,1,0.571999600157142,3,2,3,328,78
28306,1,0.466568399919197,3,1,3,329,78
28306,1,0.62961019994691,1,4,1,330,78
28306,1,0.779387099901214,3,1,3,331,78
28306,0,0.690268599893898,2,2,3,332,78
28306,1,0.549303699983284,1,3,1,333,78
28306,1,0.533076199935749,1,4,1,334,78
28306,1,0.566039300058037,2,5,2,335,78
28306,1,0.301273900084198,2,6,2,336,78
28306,1,0.335393999936059,3,1,3,337,78
28306,1,0.519905799999833,1,3,1,338,78
28306,1,0.569071900099516,2,5,2,339,78
28306,1,0.544708600034937,3,2,3,340,78
28306,1,0.648920700186864,1,4,1,341,78
28306,1,0.725256100064144,1,4,1,342,78
28306,1,0.614749900065362,3,2,3,343,78
28306,1,0.579611900029704,2,6,2,344,78
28306,1,0.803293899865821,3,2,3,345,78
28306,1,0.665431099943817,3,1,3,346,78
28306,1,0.740693900035694,1,3,1,347,78
28306,1,0.612907300004736,2,6,2,348,78
28306,1,0.658043599920347,2,5,2,349,78
28306,1,0.718787000048906,1,3,1,350,78
28306,1,0.591990899993107,2,5,2,351,78
28306,1,0.67875640001148,3,1,3,352,78
28306,1,0.513598599936813,1,4,1,353,78
28306,1,0.635437299963087,2,6,2,354,78
28306,1,0.424509699922055,2,6,2,355,78
28306,1,0.59697650000453,3,2,3,356,78
28306,1,0.587343699997291,1,3,1,357,78
28306,1,0.593913700198755,1,4,1,358,78
28306,1,1.16862040013075,3,1,3,359,78
28306,1,0.551620899932459,2,5,2,360,78
28306,1,0.575483800144866,3,2,3,361,78
28306,1,0.550997500075027,1,4,1,362,78
28306,1,0.615444200113416,2,5,2,363,78
28306,0,0.884421200025827,1,1,3,364,78
28306,1,0.502961199963465,2,6,2,365,78
28306,1,0.345452199922875,3,1,3,366,78
28306,1,0.570023400010541,1,3,1,367,78
28306,0,0.521554500097409,3,3,1,368,78
28306,1,0.665921100182459,3,2,3,369,78
28306,1,0.525958799989894,2,5,2,370,78
28306,1,0.599307999946177,1,4,1,371,78
28306,1,0.565259499941021,2,6,2,372,78
28306,1,0.940875699976459,3,2,3,373,78
28306,1,1.19740730011836,3,1,3,374,78
28306,1,1.02688780007884,2,6,2,375,78
28306,1,0.51352440007031,2,5,2,376,78
28306,1,0.41787979984656,2,6,2,377,78
28306,1,0.551278800005093,1,3,1,378,78
28306,1,0.567319499794394,1,4,1,379,78
28306,1,0.43889919994399,1,4,1,380,78
28306,1,0.610938500147313,2,5,2,381,78
28306,1,0.761421700008214,1,3,1,382,78
28306,1,0.569232600042596,3,2,3,383,78
28306,1,0.44956920016557,3,2,3,384,78
28306,1,0.532790699973702,3,1,3,385,78
28306,1,0.517404499929398,1,4,1,386,78
28306,1,1.10279590007849,3,1,3,387,78
28306,1,0.552767800167203,2,6,2,388,78
28306,1,0.520574399968609,1,4,1,389,78
28306,1,0.593626799993217,2,5,2,390,78
28306,1,0.411501500057057,1,1,1,391,78
28306,1,0.545934999827296,1,2,1,392,78
28306,1,0.442048399941996,2,3,2,393,78
28306,1,0.526675200089812,2,4,2,394,78
28306,1,0.536057299934328,3,5,3,395,78
28306,1,0.359955700114369,3,6,3,396,78
28306,1,0.632553000003099,3,5,3,397,78
28306,1,0.636856399942189,1,1,1,398,78
28306,0,1.43361099995673,1,4,2,399,78
28306,0,0.68635160010308,2,2,1,400,78
28306,1,0.841398800024763,3,5,3,401,78
28306,1,0.637595199979842,3,6,3,402,78
28306,1,0.530657900031656,2,3,2,403,78
28306,1,0.427287899889052,2,3,2,404,78
28306,1,0.648510499857366,3,6,3,405,78
28306,0,0.636825500056148,2,2,1,406,78
28306,1,0.769238899927586,1,1,1,407,78
28306,1,0.760737300151959,2,4,2,408,78
28306,1,0.856401700060815,1,1,1,409,78
28306,1,0.476653299992904,1,2,1,410,78
28306,1,0.543421600013971,2,3,2,411,78
28306,1,0.352364999940619,2,4,2,412,78
28306,1,0.408673600060865,3,5,3,413,78
28306,1,0.342803299892694,3,6,3,414,78
28306,1,0.591289900010452,1,1,1,415,78
28306,1,0.501564299920574,2,3,2,416,78
28306,1,0.535926699871197,3,5,3,417,78
28306,1,0.88827810017392,1,2,1,418,78
28306,1,0.547097899951041,2,4,2,419,78
28306,1,0.723334399983287,2,4,2,420,78
28306,1,0.996314199874178,1,2,1,421,78
28306,1,0.579263699939474,3,6,3,422,78
28306,1,1.04264849983156,1,2,1,423,78
28306,1,0.662961499998346,1,1,1,424,78
28306,1,0.666237300029024,2,3,2,425,78
28306,1,0.574120700126514,3,6,3,426,78
28306,1,0.533108399948105,3,5,3,427,78
28306,1,0.614147200016305,2,3,2,428,78
28306,1,0.682651200098917,3,5,3,429,78
28306,1,0.590001000091434,1,1,1,430,78
28306,1,0.540773699991405,2,4,2,431,78
28306,1,0.549600600032136,3,6,3,432,78
28306,1,0.66908109979704,3,6,3,433,78
28306,1,0.920939899981022,1,2,1,434,78
28306,1,0.737748400075361,2,3,2,435,78
28306,1,0.610645700013265,2,4,2,436,78
28306,1,0.648589600110427,1,1,1,437,78
28306,1,0.524163499940187,3,5,3,438,78
28306,1,1.08608780009672,1,2,1,439,78
28306,1,0.528299500001594,2,4,2,440,78
28306,1,0.529652799945325,3,5,3,441,78
28306,1,0.522837100084871,1,1,1,442,78
28306,1,0.563864000141621,3,6,3,443,78
28306,1,0.507262099999934,1,1,1,444,78
28306,1,0.461137000005692,2,3,2,445,78
28306,1,0.53682509995997,2,3,2,446,78
28306,1,0.681592099834234,1,2,1,447,78
28306,1,0.54041750007309,3,5,3,448,78
28306,1,0.628583699930459,2,4,2,449,78
28306,1,0.578832200029865,3,6,3,450,78
28306,1,0.62588099995628,1,2,1,451,78
28306,1,0.503044800134376,1,1,1,452,78
28306,1,0.593090400099754,3,6,3,453,78
28306,1,0.559887399896979,3,5,3,454,78
28306,1,0.960032800212502,3,6,3,455,78
28306,1,0.463649099925533,2,3,2,456,78
28306,1,0.387229100102559,2,4,2,457,78
28306,1,0.38619209988974,2,4,2,458,78
28306,1,0.512656999984756,3,5,3,459,78
28306,1,0.522220899816602,2,3,2,460,78
28306,1,0.684216600144282,1,2,1,461,78
28306,1,0.534326600143686,1,2,1,462,78
28306,1,0.527370000025257,1,1,1,463,78
28306,1,0.528530500130728,2,4,2,464,78
28306,1,0.593453399837017,1,1,1,465,78
28306,1,0.544674400007352,3,6,3,466,78
28306,1,0.969479199964553,2,4,2,467,78
28306,1,0.616546700010076,3,5,3,468,78
28306,1,0.73024330008775,1,1,1,469,39
28306,0,0.722959899809211,2,2,3,470,39
28306,1,0.500600399915129,3,3,3,471,39
28306,1,0.718849800061435,1,1,1,472,39
28306,1,0.704018700169399,3,3,3,473,39
28306,0,0.770175300072879,1,2,3,474,39
28306,1,0.681282899808139,3,2,3,475,39
28306,1,0.395860699936748,3,3,3,476,39
28306,1,0.386618999997154,1,1,1,477,39
28306,0,0.425029600039124,3,1,1,478,39
28306,1,0.558664500014856,3,2,3,479,39
28306,1,0.398811200167984,3,3,3,480,39
28306,1,0.572269900003448,3,3,3,481,39
28306,1,0.667946400120854,3,2,3,482,39
28306,1,0.463500000070781,1,1,1,483,39
28306,1,0.506666600005701,3,2,3,484,39
28306,1,0.476544600212947,3,3,3,485,39
28306,1,0.407881000079215,1,1,1,486,39
28306,1,0.541631700005382,1,1,1,487,39
28306,1,0.582981300074607,3,2,3,488,39
28306,1,0.533064099960029,3,3,3,489,39
28306,1,0.525622100103647,3,2,3,490,39
28306,1,0.535005700075999,3,3,3,491,39
28306,1,0.543509100098163,1,1,1,492,39
28306,1,0.720774400047958,1,1,1,493,39
28306,1,0.777828600024804,3,3,3,494,39
28306,1,0.649033300112933,3,2,3,495,39
28306,1,0.660963200032711,1,1,1,496,39
28306,1,0.609297699993476,3,2,3,497,39
28306,1,0.62307980004698,3,3,3,498,39
28306,1,0.660282799974084,3,3,3,499,39
28306,1,0.664778799982741,3,2,3,500,39
28306,1,0.588029999984428,1,1,1,501,39
28306,1,0.802375299856067,1,1,1,502,39
28306,1,0.537235699826851,3,3,3,503,39
28306,0,0.52960340003483,3,1,1,504,39
28306,1,0.52273859991692,3,2,3,505,39
28306,1,0.444349099881947,3,2,3,506,39
28306,1,0.576872600009665,3,3,3,507,39
28306,0,0.586456899996847,1,1,2,508,39
28306,0,0.569404100067914,1,2,2,509,39
28306,1,0.57661830005236,1,3,1,510,39
28306,0,0.768044499913231,3,1,2,511,39
28306,1,0.775552100036293,1,3,1,512,39
28306,0,0.718565799994394,3,2,2,513,39
28306,1,0.704215500038117,2,2,2,514,39
28306,1,1.0661341000814,1,3,1,515,39
28306,1,0.436886799987406,2,1,2,516,39
28306,1,0.434223500080407,2,1,2,517,39
28306,1,0.398881000000983,2,2,2,518,39
28306,1,0.372465699911118,1,3,1,519,39
28306,1,0.763695900095627,1,3,1,520,39
28306,1,0.571009000064805,2,2,2,521,39
28306,1,1.18688459997065,2,1,2,522,39
28306,1,0.60930659994483,2,2,2,523,39
28306,1,0.615443699993193,1,3,1,524,39
28306,1,0.348985400050879,2,1,2,525,39
28306,1,0.476878199959174,2,1,2,526,39
28306,1,0.528021099977195,2,2,2,527,39
28306,1,0.801596100209281,1,3,1,528,39
28306,1,0.551431400002912,2,2,2,529,39
28306,1,0.783382799942046,1,3,1,530,39
28306,1,0.518098399974406,2,1,2,531,39
28306,1,0.375529000069946,2,1,2,532,39
28306,0,0.462860700208694,2,3,1,533,39
28306,1,0.578901899978518,2,2,2,534,39
28306,1,0.562115200096741,2,1,2,535,39
28306,1,0.601859000045806,2,2,2,536,39
28306,0,0.720073400065303,2,3,1,537,39
28306,1,0.689651499968022,1,3,1,538,39
28306,1,0.5635409001261,2,2,2,539,39
28306,1,0.714931699912995,2,1,2,540,39
28306,1,0.740299500059336,2,1,2,541,39
28306,1,0.517234700033441,1,3,1,542,39
28306,1,0.614766499958932,2,1,2,543,39
28306,1,0.619587700115517,2,2,2,544,39
28306,1,0.449453699868172,2,2,2,545,39
28306,1,0.700949300080538,1,3,1,546,39
28306,0,0.445351300062612,1,1,2,547,78
28306,0,0.442361699882895,1,2,2,548,78
28306,0,0.446726300055161,1,3,3,549,78
28306,0,0.402359199943021,1,4,3,550,78
28306,1,0.400455299997702,1,5,1,551,78
28306,1,0.382072699954733,1,6,1,552,78
28306,0,0.845145399915054,2,5,1,553,78
28306,1,1.2421808000654,2,1,2,554,78
28306,0,0.630625599995255,2,4,3,555,78
28306,1,0.595425699837506,2,2,2,556,78
28306,1,0.66574150021188,1,5,1,557,78
28306,1,0.469585899962112,1,6,1,558,78
28306,1,0.600569100119174,3,3,3,559,78
28306,1,0.574680400080979,3,3,3,560,78
28306,1,0.917976600117981,1,6,1,561,78
28306,1,0.703081399900839,2,2,2,562,78
28306,1,0.433370299870148,2,1,2,563,78
28306,1,0.630163199966773,3,4,3,564,78
28306,1,1.04235020000488,2,1,2,565,78
28306,1,0.455458299955353,2,2,2,566,78
28306,1,0.643349600024521,3,3,3,567,78
28306,1,0.704151399899274,3,4,3,568,78
28306,1,0.914251999929547,1,5,1,569,78
28306,1,0.451108400011435,1,6,1,570,78
28306,1,0.607417999999598,2,1,2,571,78
28306,1,0.644871399970725,3,3,3,572,78
28306,1,1.00171469990164,1,5,1,573,78
28306,1,1.33605120005086,2,2,2,574,78
28306,1,0.632270399946719,3,4,3,575,78
28306,1,0.669358599931002,3,4,3,576,78
28306,1,0.600336999865249,2,2,2,577,78
28306,1,0.622705099871382,1,6,1,578,78
28306,1,0.652062200009823,2,2,2,579,78
28306,1,0.583716099848971,2,1,2,580,78
28306,1,0.478890399914235,3,3,3,581,78
28306,1,0.914060000097379,1,6,1,582,78
28306,1,0.779573299922049,1,5,1,583,78
28306,1,0.570385199971497,3,3,3,584,78
28306,1,0.826119499979541,1,5,1,585,78
28306,1,0.655406499980018,2,1,2,586,78
28306,0,0.451262000016868,2,4,3,587,78
28306,1,0.735435499809682,1,6,1,588,78
28306,1,0.535772199975327,1,6,1,589,78
28306,1,0.608806200092658,2,2,2,590,78
28306,1,0.575041600037366,3,3,3,591,78
28306,1,0.477697599912062,3,4,3,592,78
28306,1,0.49739330005832,2,1,2,593,78
28306,1,0.779053300153464,1,5,1,594,78
28306,1,0.594760000007227,2,2,2,595,78
28306,1,0.505519900005311,3,4,3,596,78
28306,1,1.16291929990984,1,5,1,597,78
28306,1,0.602875499986112,2,1,2,598,78
28306,1,0.744807999813929,1,6,1,599,78
28306,1,0.688933599973097,2,1,2,600,78
28306,1,0.548299999907613,3,3,3,601,78
28306,1,0.667981900041923,3,3,3,602,78
28306,1,0.583720800001174,2,2,2,603,78
28306,1,1.29388280003332,1,5,1,604,78
28306,1,0.664393299957737,3,4,3,605,78
28306,1,1.05201390013099,1,6,1,606,78
28306,1,0.559914000099525,2,2,2,607,78
28306,1,0.824261199915782,2,1,2,608,78
28306,1,1.06150489998981,1,6,1,609,78
28306,1,1.13752190000378,1,5,1,610,78
28306,1,0.657735199900344,1,6,1,611,78
28306,1,0.606100199976936,3,3,3,612,78
28306,1,0.980155999772251,3,4,3,613,78
28306,1,0.706759299850091,3,4,3,614,78
28306,1,1.17283520009369,1,5,1,615,78
28306,1,0.547889400040731,3,3,3,616,78
28306,1,0.627973499940708,2,2,2,617,78
28306,1,0.801470400067046,2,2,2,618,78
28306,1,0.991148799890652,2,1,2,619,78
28306,1,0.54210349987261,3,4,3,620,78
28306,1,0.62237840006128,2,1,2,621,78
28306,1,0.764115100027993,1,6,1,622,78
28306,1,0.562975000124425,3,4,3,623,78
28306,1,0.883019899949431,1,5,1,624,78
28306,0,0.398123899940401,1,1,3,625,39
28306,0,0.428134499816224,1,2,2,626,39
28306,0,0.92947189998813,1,3,3,627,39
28306,0,0.442928500007838,2,1,3,628,39
28306,0,0.600524800131097,2,3,3,629,39
28306,1,0.413308700080961,2,2,2,630,39
28306,1,0.650628699921072,2,2,2,631,39
28306,1,0.502462800126523,3,3,3,632,39
28306,1,0.408981799846515,3,1,3,633,39
28306,1,0.990605299826711,3,1,3,634,39
28306,1,0.549674999900162,2,2,2,635,39
28306,1,0.661685399943963,3,3,3,636,39
28306,1,0.585683500161394,3,3,3,637,39
28306,1,0.663766100071371,2,2,2,638,39
28306,1,1.08333089994267,3,1,3,639,39
28306,1,0.782069100067019,2,2,2,640,39
28306,1,0.532739700051025,3,3,3,641,39
28306,1,0.893601699965075,3,1,3,642,39
28306,1,0.472221300005913,3,1,3,643,39
28306,1,0.459064200054854,2,2,2,644,39
28306,1,0.567420599982142,3,3,3,645,39
28306,1,0.558718299958855,2,2,2,646,39
28306,1,0.830912200035527,3,3,3,647,39
28306,1,0.739486899925396,3,1,3,648,39
28306,1,0.420097300084308,3,1,3,649,39
28306,1,0.577548100147396,3,3,3,650,39
28306,1,0.840365399839357,2,2,2,651,39
28306,1,0.557496600085869,3,1,3,652,39
28306,1,1.1012959999498,2,2,2,653,39
28306,1,0.623933399794623,3,3,3,654,39
28306,1,0.444580900017172,3,3,3,655,39
28306,1,0.545570499962196,2,2,2,656,39
28306,1,0.513638500124216,3,1,3,657,39
28306,0,0.595307200215757,2,1,3,658,39
28306,1,0.554252199828625,3,3,3,659,39
28306,1,0.626130599994212,3,1,3,660,39
28306,1,0.559172100154683,2,2,2,661,39
28306,1,0.391085600014776,2,2,2,662,39
28306,1,0.406159400008619,3,3,3,663,39
28306,0,0.356972899986431,1,1,3,664,78
28306,0,0.372575600165874,1,2,3,665,78
28306,1,0.32426210003905,1,3,1,666,78
28306,1,0.365242199972272,1,4,1,667,78
28306,1,0.42889320012182,2,5,2,668,78
28306,1,0.346277199918404,2,6,2,669,78
28306,1,0.73858439992182,2,5,2,670,78
28306,1,0.491464999970049,3,1,3,671,78
28306,1,0.597742200130597,1,4,1,672,78
28306,0,0.939635999966413,1,2,3,673,78
28306,1,0.508658499922603,2,5,2,674,78
28306,1,0.351044500013813,2,6,2,675,78
28306,1,0.574790299870074,1,3,1,676,78
28306,1,0.573988599935547,1,3,1,677,78
28306,1,0.981436500092968,2,6,2,678,78
28306,1,0.564067500177771,3,2,3,679,78
28306,1,0.395645699929446,3,1,3,680,78
28306,1,0.546822999836877,1,4,1,681,78
28306,1,0.698167000198737,3,1,3,682,78
28306,1,0.748117599869147,3,2,3,683,78
28306,1,0.659763399977237,1,3,1,684,78
28306,1,0.687874899944291,1,4,1,685,78
28306,1,0.618297399953008,2,5,2,686,78
28306,1,0.583943299949169,2,6,2,687,78
28306,1,0.606357000069693,3,1,3,688,78
28306,1,0.516764699947089,1,3,1,689,78
28306,1,0.6140401000157,2,5,2,690,78
28306,1,0.811581999994814,3,2,3,691,78
28306,1,0.673188299871981,1,4,1,692,78
28306,1,0.444886999903247,1,4,1,693,78
28306,1,0.609507099958137,3,2,3,694,78
28306,1,0.54311400000006,2,6,2,695,78
28306,1,1.08728550001979,3,2,3,696,78
28306,1,0.578769699903205,3,1,3,697,78
28306,1,0.618037400068715,1,3,1,698,78
28306,1,0.591063899919391,2,6,2,699,78
28306,1,0.573739100014791,2,5,2,700,78
28306,1,0.637219100026414,1,3,1,701,78
28306,1,0.705589500023052,2,5,2,702,78
28306,1,0.588119000196457,3,1,3,703,78
28306,1,0.634695400018245,1,4,1,704,78
28306,1,0.599136500153691,2,6,2,705,78
28306,1,0.604998599970713,2,6,2,706,78
28306,1,0.675316400127485,3,2,3,707,78
28306,1,0.61497259978205,1,3,1,708,78
28306,1,0.579887799918652,1,4,1,709,78
28306,1,0.610681199934334,3,1,3,710,78
28306,1,1.12091980013065,2,5,2,711,78
28306,1,0.625645400024951,3,2,3,712,78
28306,1,0.607154099969193,1,4,1,713,78
28306,1,0.661621599923819,2,5,2,714,78
28306,1,0.617390300147235,3,1,3,715,78
28306,1,0.54274920001626,2,6,2,716,78
28306,1,0.67136020003818,3,1,3,717,78
28306,1,0.530039900215343,1,3,1,718,78
28306,1,0.451515400083736,1,3,1,719,78
28306,1,0.543154499959201,3,2,3,720,78
28306,1,0.512173200026155,2,5,2,721,78
28306,1,1.2738842999097,1,4,1,722,78
28306,1,0.557021300075576,2,6,2,723,78
28306,1,0.548971700016409,3,2,3,724,78
28306,1,1.10149369994178,3,1,3,725,78
28306,1,0.567677699960768,2,6,2,726,78
28306,1,0.5661500999704,2,5,2,727,78
28306,1,0.870001300005242,2,6,2,728,78
28306,1,0.649171600118279,1,3,1,729,78
28306,1,0.621542199980468,1,4,1,730,78
28306,1,0.80231749988161,1,4,1,731,78
28306,1,0.856967400060967,2,5,2,732,78
28306,1,1.18829459999688,1,3,1,733,78
28306,1,0.603206200059503,3,2,3,734,78
28306,1,1.37742529995739,3,2,3,735,78
28306,-1,-1,-1,1,3,736,78
28306,1,0.52264770003967,1,4,1,737,78
28306,1,0.588157500140369,3,1,3,738,78
28306,1,0.538694400107488,2,6,2,739,78
28306,1,0.547063899924979,1,4,1,740,78
28306,1,0.546998600009829,2,5,2,741,78
28306,0,0.313542200019583,1,1,2,742,39
28306,0,0.378474800148979,2,2,1,743,39
28306,0,0.26575869997032,3,3,1,744,39
28306,1,0.661054299911484,2,1,2,745,39
28306,1,0.961487699998543,1,3,1,746,39
28306,1,0.529433300020173,1,2,1,747,39
28306,1,0.642915999982506,1,2,1,748,39
28306,1,0.535332200117409,1,3,1,749,39
28306,1,0.335828599985689,2,1,2,750,39
28306,1,0.488445100141689,2,1,2,751,39
28306,1,0.331429300131276,1,2,1,752,39
28306,1,0.27591670001857,1,3,1,753,39
28306,1,0.535253399983048,1,3,1,754,39
28306,1,0.384055699920282,1,2,1,755,39
28306,1,0.367350399959832,2,1,2,756,39
28306,1,0.446128700161353,1,2,1,757,39
28306,1,0.514276699861512,1,3,1,758,39
28306,1,0.444169299909845,2,1,2,759,39
28306,0,0.712983400095254,1,1,2,760,39
28306,1,0.45036039990373,1,2,1,761,39
28306,1,0.374161399900913,1,3,1,762,39
28306,1,0.613456299994141,1,2,1,763,39
28306,1,0.530700600007549,1,3,1,764,39
28306,1,0.467570299981162,2,1,2,765,39
28306,1,0.406940199900419,2,1,2,766,39
28306,1,0.532722499920055,1,3,1,767,39
28306,1,0.397324700141326,1,2,1,768,39
28306,1,0.507212100084871,2,1,2,769,39
28306,1,0.341634099837393,1,2,1,770,39
28306,1,0.349696400109679,1,3,1,771,39
28306,1,0.606377299875021,1,3,1,772,39
28306,1,0.500182500109076,1,2,1,773,39
28306,1,0.325670000165701,2,1,2,774,39
28306,1,0.447435199981555,2,1,2,775,39
28306,1,0.450792399933562,1,3,1,776,39
28306,1,0.455445599975064,2,1,2,777,39
28306,1,0.458785699913278,1,2,1,778,39
28306,1,0.503680300200358,1,2,1,779,39
28306,1,0.529053799808025,1,3,1,780,39
28329,1,0.575747100170702,1,1,1,1,39
28329,0,0.702919000061229,3,2,2,2,39
28329,0,0.441269299946725,3,3,2,3,39
28329,0,0.669889600016177,1,3,2,4,39
28329,1,0.545120999915525,1,1,1,5,39
28329,1,0.745864700060338,2,3,2,6,39
28329,0,0.59459439991042,3,2,2,7,39
28329,1,0.616929700132459,1,1,1,8,39
28329,1,0.782325699925423,2,2,2,9,39
28329,1,0.517005600035191,1,1,1,10,39
28329,1,0.382673799991608,2,2,2,11,39
28329,1,0.285291400039569,2,3,2,12,39
28329,1,0.487996099982411,1,1,1,13,39
28329,1,0.226605600211769,2,3,2,14,39
28329,1,0.240190100157633,2,2,2,15,39
28329,1,0.476268900092691,2,2,2,16,39
28329,1,0.392021500039846,1,1,1,17,39
28329,0,0.39842540002428,2,1,1,18,39
28329,1,0.716605499852449,2,3,2,19,39
28329,1,0.77373080002144,2,2,2,20,39
28329,1,0.453250300139189,2,3,2,21,39
28329,1,0.369141600094736,2,3,2,22,39
28329,1,0.352390799904242,1,1,1,23,39
28329,1,0.624282600125298,2,2,2,24,39
28329,1,0.437921900069341,2,3,2,25,39
28329,1,0.6107448998373,1,1,1,26,39
28329,1,0.616772199980915,2,3,2,27,39
28329,1,0.677894699852914,2,2,2,28,39
28329,1,0.513501000124961,1,1,1,29,39
28329,1,0.514733899850398,2,2,2,30,39
28329,1,0.484058199916035,2,2,2,31,39
28329,1,0.59832700015977,2,3,2,32,39
28329,1,0.540271899895743,1,1,1,33,39
28329,1,0.325376499909908,2,3,2,34,39
28329,1,0.470468200044706,1,1,1,35,39
28329,1,0.530058800010011,2,2,2,36,39
28329,1,0.386371599975973,2,2,2,37,39
28329,1,0.425422899890691,1,1,1,38,39
28329,1,0.318410100182518,2,3,2,39,39
28329,1,0.776441999943927,1,1,1,40,78
28329,0,0.679830000037327,2,2,1,41,78
28329,0,0.955240000039339,1,3,2,42,78
28329,0,0.731055399868637,3,4,2,43,78
28329,0,0.724033999955282,1,5,3,44,78
28329,0,0.652732099872082,1,6,3,45,78
28329,1,0.513215299928561,1,1,1,46,78
28329,-1,-1,-1,5,3,47,78
28329,1,0.644860900007188,1,2,1,48,78
28329,0,0.793275499949232,2,6,3,49,78
28329,0,0.591667999979109,3,3,2,50,78
28329,0,0.422572499839589,3,3,2,51,78
28329,0,0.900147699983791,3,4,2,52,78
28329,0,0.502006199909374,3,2,1,53,78
28329,1,0.823930999962613,2,4,2,54,78
28329,0,0.973371999803931,2,6,3,55,78
28329,1,0.684642599895597,1,1,1,56,78
28329,1,1.48732520011254,3,5,3,57,78
28329,1,1.04987380001694,1,1,1,58,78
28329,1,0.606030400143936,1,2,1,59,78
28329,1,0.820079000201076,2,3,2,60,78
28329,1,0.768930300138891,2,4,2,61,78
28329,1,0.856255599996075,3,5,3,62,78
28329,1,0.812633000081405,3,6,3,63,78
28329,0,0.666704300092533,3,4,2,64,78
28329,1,1.06203359994106,2,3,2,65,78
28329,0,1.02598510007374,3,4,2,66,78
28329,1,0.863430300028995,1,1,1,67,78
28329,1,0.890807999996468,3,5,3,68,78
28329,1,0.581065100152045,3,5,3,69,78
28329,1,0.939711899962276,1,2,1,70,78
28329,1,0.860336999874562,3,6,3,71,78
28329,1,0.936594400089234,2,3,2,72,78
28329,1,0.793255799915642,3,5,3,73,78
28329,1,0.495851099956781,1,2,1,74,78
28329,1,0.602657000068575,1,1,1,75,78
28329,1,0.656681100139394,3,6,3,76,78
28329,1,1.09260279987939,2,4,2,77,78
28329,1,0.343439100077376,2,3,2,78,78
28329,1,1.17575079994276,3,6,3,79,78
28329,1,0.535248099826276,1,2,1,80,78
28329,1,0.911937800003216,3,6,3,81,78
28329,1,0.521929699927568,1,1,1,82,78
28329,1,0.715275899972767,3,5,3,83,78
28329,1,0.612343900138512,1,2,1,84,78
28329,1,1.41866900003515,1,1,1,85,78
28329,1,1.00771070015617,2,4,2,86,78
28329,1,0.789974800078198,2,3,2,87,78
28329,1,0.564590300200507,2,3,2,88,78
28329,1,0.53988129994832,1,2,1,89,78
28329,1,0.844716899795458,3,5,3,90,78
28329,1,0.513371399836615,3,6,3,91,78
28329,1,0.626369700068608,1,1,1,92,78
28329,1,0.496706200065091,1,1,1,93,78
28329,1,0.55379749997519,2,4,2,94,78
28329,1,0.697706300066784,1,1,1,95,78
28329,-1,-1,-1,6,3,96,78
28329,1,0.605686200084165,1,2,1,97,78
28329,1,0.859900399809703,2,3,2,98,78
28329,1,1.2158813001588,3,5,3,99,78
28329,1,0.933147400151938,2,4,2,100,78
28329,1,0.910058700013906,2,4,2,101,78
28329,1,0.655798000050709,2,3,2,102,78
28329,1,0.867746700067073,3,5,3,103,78
28329,1,0.711209199856967,2,3,2,104,78
28329,1,0.481232200050727,1,1,1,105,78
28329,1,0.683882399927825,1,2,1,106,78
28329,1,0.670632899971679,3,6,3,107,78
28329,1,0.490095300134271,3,6,3,108,78
28329,1,0.580528900027275,1,2,1,109,78
28329,1,1.1312737998087,3,5,3,110,78
28329,1,0.80394749995321,2,4,2,111,78
28329,1,0.417785900179297,2,3,2,112,78
28329,1,0.58358890004456,3,6,3,113,78
28329,1,0.677982400171459,2,4,2,114,78
28329,1,0.369453000137582,1,2,1,115,78
28329,1,0.392670199973509,1,1,1,116,78
28329,1,0.511318000033498,1,2,1,117,78
28329,1,0.820805000141263,1,1,1,118,39
28329,1,1.03341559995897,3,2,3,119,39
28329,0,0.702777799917385,2,3,3,120,39
28329,1,0.760554499924183,3,3,3,121,39
28329,1,0.768642900045961,1,1,1,122,39
28329,1,0.632015899987891,3,3,3,123,39
28329,1,0.308314300142229,3,2,3,124,39
28329,1,0.334380499785766,1,1,1,125,39
28329,1,0.559317900100723,3,2,3,126,39
28329,1,0.511202199850231,1,1,1,127,39
28329,1,0.568966099992394,3,2,3,128,39
28329,1,0.592687599826604,3,3,3,129,39
28329,1,0.391166500048712,1,1,1,130,39
28329,1,0.493752099806443,3,3,3,131,39
28329,1,0.585019499994814,3,2,3,132,39
28329,1,0.463407100178301,3,2,3,133,39
28329,1,0.394293300108984,1,1,1,134,39
28329,1,0.377462799893692,1,1,1,135,39
28329,1,0.456707700155675,3,3,3,136,39
28329,1,0.428603400010616,3,2,3,137,39
28329,1,0.497927399817854,3,3,3,138,39
28329,1,0.580015099840239,3,3,3,139,39
28329,1,0.458050600020215,1,1,1,140,39
28329,1,0.838567900005728,3,2,3,141,39
28329,1,0.587389899883419,3,3,3,142,39
28329,1,0.657975299982354,1,1,1,143,39
28329,1,0.581994199892506,3,3,3,144,39
28329,1,0.564489400014281,3,2,3,145,39
28329,1,0.396106299944222,1,1,1,146,39
28329,1,0.498031100025401,3,2,3,147,39
28329,1,0.292675300035626,3,2,3,148,39
28329,1,0.791330999927595,3,3,3,149,39
28329,1,0.470079200109467,1,1,1,150,39
28329,1,0.537387100048363,3,3,3,151,39
28329,1,0.513607200002298,1,1,1,152,39
28329,1,0.427219199948013,3,2,3,153,39
28329,1,0.43278959998861,3,2,3,154,39
28329,1,0.365136599866673,1,1,1,155,39
28329,1,0.500664599938318,3,3,3,156,39
28329,0,0.565424999920651,1,1,2,157,39
28329,0,0.764616300119087,1,2,2,158,39
28329,1,0.340045200195163,1,3,1,159,39
28329,1,0.588830000022426,1,3,1,160,39
28329,1,0.555343299871311,2,1,2,161,39
28329,1,0.715176499914378,1,3,1,162,39
28329,0,0.460866699926555,3,2,2,163,39
28329,1,1.38488519983366,2,1,2,164,39
28329,1,0.58309690002352,2,2,2,165,39
28329,1,0.429904199903831,2,1,2,166,39
28329,1,0.402502000099048,2,2,2,167,39
28329,1,0.360472900094464,1,3,1,168,39
28329,1,0.608656400116161,2,1,2,169,39
28329,1,0.59072730015032,1,3,1,170,39
28329,1,0.501441099913791,2,2,2,171,39
28329,1,0.39942970010452,2,2,2,172,39
28329,1,0.39732849993743,2,1,2,173,39
28329,1,0.347035000100732,2,1,2,174,39
28329,1,0.39531119982712,1,3,1,175,39
28329,1,0.329951100051403,2,2,2,176,39
28329,1,0.659426999976858,1,3,1,177,39
28329,1,0.487381699960679,1,3,1,178,39
28329,1,0.442044500028715,2,1,2,179,39
28329,1,0.262686400208622,2,2,2,180,39
28329,1,0.674359000055119,1,3,1,181,39
28329,1,0.565937200095505,2,1,2,182,39
28329,1,0.549347700085491,1,3,1,183,39
28329,1,0.349296800093725,2,2,2,184,39
28329,1,0.413454199908301,2,1,2,185,39
28329,1,0.346729899989441,2,2,2,186,39
28329,1,0.394616599893197,2,2,2,187,39
28329,0,0.401008800137788,2,3,1,188,39
28329,1,0.615439800079912,2,1,2,189,39
28329,1,0.508796599926427,1,3,1,190,39
28329,1,0.526538599980995,2,1,2,191,39
28329,1,0.551602199906483,2,2,2,192,39
28329,1,0.463949300115928,2,2,2,193,39
28329,0,0.467306000180542,1,1,2,194,39
28329,1,0.494526899885386,1,3,1,195,39
28329,0,0.744344499893486,1,1,2,196,78
28329,0,0.609259800054133,1,2,2,197,78
28329,0,0.415071700001135,1,3,3,198,78
28329,0,0.668433699989691,1,4,3,199,78
28329,1,0.392084300052375,1,5,1,200,78
28329,1,0.630561900092289,1,6,1,201,78
28329,1,0.715394900180399,2,1,2,202,78
28329,1,0.956665700068697,1,5,1,203,78
28329,1,1.1483737998642,2,2,2,204,78
28329,1,0.73254320002161,1,6,1,205,78
28329,1,0.693411799846217,3,3,3,206,78
28329,1,0.951933000003919,3,3,3,207,78
28329,-1,-1,-1,4,3,208,78
28329,1,1.04167070006952,2,2,2,209,78
28329,1,0.814690900035203,3,4,3,210,78
28329,1,0.691968699917197,1,6,1,211,78
28329,1,0.718805899843574,2,1,2,212,78
28329,1,0.624079200206324,1,5,1,213,78
28329,1,0.589050799841061,2,1,2,214,78
28329,1,0.739766700193286,2,2,2,215,78
28329,1,0.516318700043485,3,3,3,216,78
28329,1,0.477997299982235,3,4,3,217,78
28329,1,0.777272399980575,1,5,1,218,78
28329,1,0.528411900158972,1,6,1,219,78
28329,1,0.657991099869832,3,4,3,220,78
28329,1,0.781971299787983,3,3,3,221,78
28329,1,0.748756299959496,3,4,3,222,78
28329,1,0.708506700117141,2,1,2,223,78
28329,1,0.534679099917412,1,5,1,224,78
28329,1,0.663297699997202,1,5,1,225,78
28329,1,0.546681100036949,2,2,2,226,78
28329,1,0.602482500020415,1,6,1,227,78
28329,1,0.656493000220507,3,3,3,228,78
28329,1,0.596333600115031,1,5,1,229,78
28329,1,0.682628899812698,2,2,2,230,78
28329,1,0.693016899982467,2,1,2,231,78
28329,1,0.503986000083387,1,6,1,232,78
28329,1,0.40224750014022,3,4,3,233,78
28329,1,0.54407720011659,3,3,3,234,78
28329,1,0.584493100177497,1,6,1,235,78
28329,1,0.46326500014402,2,2,2,236,78
28329,1,0.466439899988472,1,6,1,237,78
28329,1,0.342040100134909,2,1,2,238,78
28329,1,0.566964199999347,1,5,1,239,78
28329,1,0.621466899989173,2,2,2,240,78
28329,1,0.77147480007261,2,1,2,241,78
28329,1,0.530413100030273,3,4,3,242,78
28329,1,0.395065299933776,3,3,3,243,78
28329,1,0.474085400113836,3,3,3,244,78
28329,1,0.557543599978089,2,2,2,245,78
28329,1,0.445300200022757,1,5,1,246,78
28329,1,0.385806600097567,1,6,1,247,78
28329,1,0.52044490003027,2,1,2,248,78
28329,1,0.425849300110713,2,1,2,249,78
28329,1,0.527378200087696,3,4,3,250,78
28329,1,0.63271369994618,2,1,2,251,78
28329,1,0.493228300008923,1,6,1,252,78
28329,1,0.487895200029016,2,2,2,253,78
28329,1,0.802598899928853,3,3,3,254,78
28329,1,0.608691799920052,1,5,1,255,78
28329,1,0.91070370003581,3,4,3,256,78
28329,1,0.592318099923432,3,4,3,257,78
28329,1,0.68734489986673,3,3,3,258,78
28329,1,0.585945799946785,1,5,1,259,78
28329,1,0.632775299949571,3,3,3,260,78
28329,1,0.613441300112754,2,1,2,261,78
28329,0,0.530924499966204,1,2,2,262,78
28329,1,0.459407000103965,1,6,1,263,78
28329,1,0.447188799967989,1,6,1,264,78
28329,1,0.754969199886546,2,2,2,265,78
28329,1,0.499367299955338,1,5,1,266,78
28329,1,0.661383999977261,3,4,3,267,78
28329,1,0.56101579987444,3,3,3,268,78
28329,1,0.617299099918455,1,6,1,269,78
28329,1,1.10268160002306,3,4,3,270,78
28329,1,0.504754499997944,2,2,2,271,78
28329,1,0.546489499974996,2,1,2,272,78
28329,1,0.578864299925044,2,2,2,273,78
28329,0,0.931115000043064,1,1,3,274,39
28329,0,0.756074599921703,1,2,2,275,39
28329,0,0.459644900169224,1,3,3,276,39
28329,0,0.863671800121665,2,3,3,277,39
28329,-1,-1,-1,1,3,278,39
28329,1,0.869413499953225,3,3,3,279,39
28329,1,0.568691600114107,2,2,2,280,39
28329,0,0.480141100008041,2,1,3,281,39
28329,1,0.857999200001359,2,2,2,282,39
28329,1,0.534726700047031,3,1,3,283,39
28329,1,0.679134299978614,2,2,2,284,39
28329,1,0.290346200112253,3,3,3,285,39
28329,1,0.365480000153184,3,1,3,286,39
28329,0,0.452559700002894,2,3,3,287,39
28329,1,0.432643299922347,2,2,2,288,39
28329,1,0.749555800110102,2,2,2,289,39
28329,1,0.365317799849436,3,1,3,290,39
28329,1,0.564308400033042,3,1,3,291,39
28329,1,0.371803099988028,3,3,3,292,39
28329,1,0.546964399982244,2,2,2,293,39
28329,0,0.771431900095195,2,3,3,294,39
28329,1,0.61090170009993,3,3,3,295,39
28329,1,1.01678470009938,3,1,3,296,39
28329,1,0.365933699999005,2,2,2,297,39
28329,0,0.517075300216675,2,3,3,298,39
28329,1,1.12666819989681,3,1,3,299,39
28329,1,0.847998199984431,3,3,3,300,39
28329,1,0.32389930007048,2,2,2,301,39
28329,1,0.461025199852884,3,1,3,302,39
28329,1,0.577300099888816,2,2,2,303,39
28329,0,0.424606200074777,3,2,2,304,39
28329,1,0.374077399959788,3,3,3,305,39
28329,1,0.493113599950448,3,1,3,306,39
28329,1,0.784196499967948,3,3,3,307,39
28329,1,0.654495100025088,3,1,3,308,39
28329,1,0.530614000046626,2,2,2,309,39
28329,1,0.547069899970666,2,2,2,310,39
28329,1,0.475382599979639,3,1,3,311,39
28329,1,0.718461300013587,3,3,3,312,39
28329,1,0.54911860008724,3,1,3,313,78
28329,1,1.08528549992479,3,2,3,314,78
28329,0,0.75218449998647,3,3,1,315,78
28329,0,1.06363960006274,3,4,1,316,78
28329,0,0.37147709983401,3,5,2,317,78
28329,0,0.554774299962446,3,6,2,318,78
28329,1,0.490735499886796,3,1,3,319,78
28329,1,0.93297309987247,2,5,2,320,78
28329,1,0.774011200061068,3,2,3,321,78
28329,0,0.853507700143382,1,6,2,322,78
28329,1,0.67307210015133,1,3,1,323,78
28329,1,0.652736300136894,1,3,1,324,78
28329,1,0.576579299988225,1,4,1,325,78
28329,1,0.711901900125667,3,2,3,326,78
28329,1,0.705987300025299,1,4,1,327,78
28329,1,0.740069700172171,2,6,2,328,78
28329,1,0.596127100056037,3,1,3,329,78
28329,1,0.434374100062996,2,5,2,330,78
28329,1,0.51939389994368,3,1,3,331,78
28329,1,0.400797600159422,3,2,3,332,78
28329,1,0.75075830006972,1,3,1,333,78
28329,1,0.366664400091395,1,4,1,334,78
28329,1,0.718051500152797,2,5,2,335,78
28329,1,0.487529400037602,2,6,2,336,78
28329,1,0.649776600068435,1,4,1,337,78
28329,1,0.437976600136608,1,3,1,338,78
28329,1,0.666582599980757,1,4,1,339,78
28329,1,0.629856399958953,3,1,3,340,78
28329,1,0.611481699859723,2,5,2,341,78
28329,1,0.625413300003856,2,5,2,342,78
28329,1,0.590694900136441,3,2,3,343,78
28329,1,0.629396700067446,2,6,2,344,78
28329,1,0.578781699994579,1,3,1,345,78
28329,1,0.705716600175947,2,5,2,346,78
28329,1,0.635936700040475,3,2,3,347,78
28329,1,0.56074700015597,3,1,3,348,78
28329,1,0.560627999948338,2,6,2,349,78
28329,1,0.576522200135514,1,4,1,350,78
28329,1,0.424155900022015,1,3,1,351,78
28329,1,0.613126100040972,2,6,2,352,78
28329,1,0.554715499980375,3,2,3,353,78
28329,1,0.754712500143796,2,6,2,354,78
28329,1,0.554829700151458,3,1,3,355,78
28329,1,0.538405699888244,2,5,2,356,78
28329,1,0.547385599929839,3,2,3,357,78
28329,1,0.53928290004842,3,1,3,358,78
28329,1,0.612087899819016,1,4,1,359,78
28329,1,0.338138800114393,1,3,1,360,78
28329,1,0.498513299971819,1,3,1,361,78
28329,1,0.460790899815038,3,2,3,362,78
28329,1,0.568536599865183,2,5,2,363,78
28329,1,0.472108300076798,2,6,2,364,78
28329,1,0.331505000125617,3,1,3,365,78
28329,1,0.444030500017107,3,1,3,366,78
28329,1,0.600833400152624,1,4,1,367,78
28329,1,0.558530600043014,3,1,3,368,78
28329,1,0.590733899967745,2,6,2,369,78
28329,1,0.557522300165147,3,2,3,370,78
28329,1,0.669144199928269,1,3,1,371,78
28329,1,0.488467599963769,2,5,2,372,78
28329,1,0.611441300017759,1,4,1,373,78
28329,1,0.54529509996064,1,4,1,374,78
28329,1,0.602038500132039,1,3,1,375,78
28329,1,0.623756699962541,2,5,2,376,78
28329,1,0.605374699924141,1,3,1,377,78
28329,1,0.611300999997184,3,1,3,378,78
28329,1,0.625432200031355,3,2,3,379,78
28329,1,0.582412900170311,2,6,2,380,78
28329,1,0.413323599845171,2,6,2,381,78
28329,1,0.498730099992827,3,2,3,382,78
28329,1,0.588698599953204,2,5,2,383,78
28329,1,0.603995600016788,1,4,1,384,78
28329,1,0.457549700047821,1,3,1,385,78
28329,1,0.541262599872425,2,6,2,386,78
28329,1,0.670047400053591,1,4,1,387,78
28329,1,0.561460300115868,3,2,3,388,78
28329,1,0.561350600095466,3,1,3,389,78
28329,1,0.633349099894986,3,2,3,390,78
28329,0,0.628426800016314,3,1,1,391,78
28329,0,0.841879599960521,3,2,1,392,78
28329,0,0.44659770000726,3,3,2,393,78
28329,0,0.290651899995282,3,4,2,394,78
28329,1,0.477111699990928,3,5,3,395,78
28329,1,0.368885400006548,3,6,3,396,78
28329,1,1.03995220013894,1,1,1,397,78
28329,0,0.844428499927744,1,5,3,398,78
28329,1,0.641369299963117,1,2,1,399,78
28329,1,1.13416099990718,3,6,3,400,78
28329,1,0.95870460011065,2,3,2,401,78
28329,1,0.654741399921477,2,3,2,402,78
28329,1,0.658529200125486,2,4,2,403,78
28329,0,0.902636799961329,3,2,1,404,78
28329,1,0.824884900124744,2,4,2,405,78
28329,0,0.71786139998585,1,6,3,406,78
28329,1,0.815432599978521,1,1,1,407,78
28329,1,0.836804199963808,3,5,3,408,78
28329,1,0.809147000079975,1,1,1,409,78
28329,0,0.911057099932805,3,2,1,410,78
28329,1,0.761334399925545,2,3,2,411,78
28329,1,0.441392699955031,2,4,2,412,78
28329,1,0.629793100059032,3,5,3,413,78
28329,1,0.499282300006598,3,6,3,414,78
28329,1,0.501436699880287,2,4,2,415,78
28329,1,0.319225999992341,2,3,2,416,78
28329,1,0.584650200093165,2,4,2,417,78
28329,1,0.575486499816179,1,1,1,418,78
28329,1,0.838750200113282,3,5,3,419,78
28329,1,0.61151079996489,3,5,3,420,78
28329,1,0.377468799939379,1,2,1,421,78
28329,1,0.664767200127244,3,6,3,422,78
28329,1,0.484036199981347,2,3,2,423,78
28329,1,0.494917100062594,3,5,3,424,78
28329,1,0.665467899991199,1,2,1,425,78
28329,0,0.524651099927723,3,1,1,426,78
28329,1,0.638061600038782,3,6,3,427,78
28329,1,0.586574700195342,2,4,2,428,78
28329,1,0.329026499995962,2,3,2,429,78
28329,1,0.610220500035211,3,6,3,430,78
28329,1,0.54476199997589,1,2,1,431,78
28329,1,0.641525299986824,3,6,3,432,78
28329,1,1.15006159991026,1,1,1,433,78
28329,1,0.549785200040787,3,5,3,434,78
28329,1,0.533969499869272,1,2,1,435,78
28329,1,0.494602399878204,1,1,1,436,78
28329,1,0.545404999982566,2,4,2,437,78
28329,1,0.658020599978045,2,3,2,438,78
28329,1,0.518236799864098,2,3,2,439,78
28329,1,0.631553900195286,1,2,1,440,78
28329,1,0.964057700010017,3,5,3,441,78
28329,1,0.723327700048685,3,6,3,442,78
28329,1,0.572492799954489,1,1,1,443,78
28329,1,0.636004999978468,1,1,1,444,78
28329,1,0.624938899884,2,4,2,445,78
28329,1,0.494873600080609,1,1,1,446,78
28329,1,0.560826199827716,3,6,3,447,78
28329,1,0.520664300071076,1,2,1,448,78
28329,1,0.49778819992207,2,3,2,449,78
28329,1,0.492131300037727,3,5,3,450,78
28329,1,1.11877249996178,2,4,2,451,78
28329,1,0.439804799854755,2,4,2,452,78
28329,1,0.564829299924895,2,3,2,453,78
28329,1,0.52407359983772,3,5,3,454,78
28329,1,0.605057000182569,2,3,2,455,78
28329,1,0.539438100066036,1,1,1,456,78
28329,1,0.459895599866286,1,2,1,457,78
28329,1,0.575827799970284,3,6,3,458,78
28329,1,0.583303999854252,3,6,3,459,78
28329,1,0.518008699873462,1,2,1,460,78
28329,1,0.471529399976134,3,5,3,461,78
28329,1,0.482660199981183,2,4,2,462,78
28329,1,1.06955950008705,2,3,2,463,78
28329,1,0.656645300099626,3,6,3,464,78
28329,1,0.684751599794254,2,4,2,465,78
28329,1,0.911385500105098,1,2,1,466,78
28329,1,0.729521000059322,1,1,1,467,78
28329,1,0.83479980006814,1,2,1,468,78
28329,0,0.717548199929297,2,1,1,469,39
28329,0,0.45495539996773,2,2,3,470,39
28329,0,0.378677100175992,2,3,3,471,39
28329,0,0.665990599896759,1,3,3,472,39
28329,1,1.03713449998759,1,1,1,473,39
28329,1,0.721969200065359,3,3,3,474,39
28329,0,0.931551499990746,1,2,3,475,39
28329,1,0.604327199980617,1,1,1,476,39
28329,1,0.577908599982038,3,2,3,477,39
28329,1,0.545218300074339,1,1,1,478,39
28329,1,0.378025100100785,3,2,3,479,39
28329,1,0.257183300098404,3,3,3,480,39
28329,1,0.405356199946254,1,1,1,481,39
28329,1,0.587475000182167,3,3,3,482,39
28329,1,0.490043400088325,3,2,3,483,39
28329,1,0.396717800060287,3,2,3,484,39
28329,1,0.370754699921235,1,1,1,485,39
28329,1,0.513823499903083,1,1,1,486,39
28329,1,0.411524399882182,3,3,3,487,39
28329,1,0.5693842000328,3,2,3,488,39
28329,1,0.440657699946314,3,3,3,489,39
28329,1,0.405623600119725,3,3,3,490,39
28329,1,0.379349800059572,1,1,1,491,39
28329,1,0.410866900114343,3,2,3,492,39
28329,1,0.44074170012027,3,3,3,493,39
28329,0,0.413329399889335,3,1,1,494,39
28329,1,0.411048999987543,3,3,3,495,39
28329,1,0.504438000032678,3,2,3,496,39
28329,1,0.562722600065172,1,1,1,497,39
28329,1,0.626805200008675,3,2,3,498,39
28329,1,0.463762199971825,3,2,3,499,39
28329,1,0.931338800117373,3,3,3,500,39
28329,1,0.547976499889046,1,1,1,501,39
28329,1,0.628081099828705,3,3,3,502,39
28329,1,0.54509919998236,1,1,1,503,39
28329,1,0.522116400068626,3,2,3,504,39
28329,1,0.403409299906343,3,2,3,505,39
28329,1,0.513562600128353,1,1,1,506,39
28329,1,0.55467680003494,3,3,3,507,39
28329,0,0.901404400123283,1,1,2,508,39
28329,0,0.391384299844503,1,2,2,509,39
28329,1,0.0862974000629038,1,3,1,510,39
28329,1,0.760685499990359,1,3,1,511,39
28329,1,0.77660599979572,2,1,2,512,39
28329,1,0.584097899962217,1,3,1,513,39
28329,0,0.446738000027835,3,2,2,514,39
28329,1,0.842862999998033,2,1,2,515,39
28329,1,0.471391199855134,2,2,2,516,39
28329,1,0.658887400059029,2,1,2,517,39
28329,1,0.334753699833527,2,2,2,518,39
28329,1,0.311189899919555,1,3,1,519,39
28329,1,0.361363999778405,2,1,2,520,39
28329,1,0.273492000065744,1,3,1,521,39
28329,1,0.332856500055641,2,2,2,522,39
28329,1,0.525618999963626,2,2,2,523,39
28329,1,0.5186860000249,2,1,2,524,39
28329,1,0.440414699958637,2,1,2,525,39
28329,1,0.372985899914056,1,3,1,526,39
28329,1,0.675982299959287,2,2,2,527,39
28329,1,0.503621900221333,1,3,1,528,39
28329,1,0.68153790012002,1,3,1,529,39
28329,1,0.500274199992418,2,1,2,530,39
28329,1,0.334325100062415,2,2,2,531,39
28329,1,0.686754999915138,1,3,1,532,39
28329,1,0.457346400013193,2,1,2,533,39
28329,1,0.381399399833754,1,3,1,534,39
28329,1,0.388305699918419,2,2,2,535,39
28329,1,0.298752299975604,2,1,2,536,39
28329,1,0.428736799862236,2,2,2,537,39
28329,1,0.40990799991414,2,2,2,538,39
28329,1,0.488326200051233,1,3,1,539,39
28329,1,0.650893500074744,2,1,2,540,39
28329,1,0.5751340999268,1,3,1,541,39
28329,1,0.462037399876863,2,1,2,542,39
28329,1,0.442278199829161,2,2,2,543,39
28329,1,0.422859499929473,2,2,2,544,39
28329,1,0.443818299798295,2,1,2,545,39
28329,1,0.4568451999221,1,3,1,546,39
28329,0,0.67264060000889,1,1,2,547,78
28329,0,0.396126900101081,1,2,2,548,78
28329,0,0.290671100141481,1,3,3,549,78
28329,0,0.469329199986532,1,4,3,550,78
28329,1,0.464701600139961,1,5,1,551,78
28329,1,0.844203199958429,1,6,1,552,78
28329,1,0.808457100065425,2,1,2,553,78
28329,1,1.35077909985557,1,5,1,554,78
28329,0,0.862436400027946,3,2,2,555,78
28329,1,1.16272139991634,1,6,1,556,78
28329,1,0.706721100024879,3,3,3,557,78
28329,1,0.75689210020937,3,3,3,558,78
28329,1,0.940491999965161,3,4,3,559,78
28329,1,0.621652100002393,2,2,2,560,78
28329,1,0.762788699939847,3,4,3,561,78
28329,1,0.683191400021315,1,6,1,562,78
28329,1,0.749111900106072,2,1,2,563,78
28329,1,0.637547200080007,1,5,1,564,78
28329,1,1.10612729983404,2,1,2,565,78
28329,0,0.588024099823087,3,2,2,566,78
28329,1,0.626814799848944,3,3,3,567,78
28329,1,0.375908400164917,3,4,3,568,78
28329,1,0.655729799997061,1,5,1,569,78
28329,1,0.403249199967831,1,6,1,570,78
28329,1,0.609639700036496,3,4,3,571,78
28329,1,0.551401400007308,3,3,3,572,78
28329,1,0.639236700022593,3,4,3,573,78
28329,1,0.412353900028393,2,1,2,574,78
28329,1,0.73028719983995,1,5,1,575,78
28329,1,0.538602800108492,1,5,1,576,78
28329,1,0.619153500068933,2,2,2,577,78
28329,1,0.544764799997211,1,6,1,578,78
28329,1,0.553475700085983,3,3,3,579,78
28329,0,0.737193000037223,2,5,1,580,78
28329,1,0.69005490001291,2,2,2,581,78
28329,1,0.436778000090271,2,1,2,582,78
28329,1,0.609485100023448,1,6,1,583,78
28329,1,0.575382400071248,3,4,3,584,78
28329,1,0.550507899839431,3,3,3,585,78
28329,1,0.366850099992007,1,6,1,586,78
28329,1,0.502040999941528,2,2,2,587,78
28329,1,0.568494800012559,1,6,1,588,78
28329,1,0.599477600073442,2,1,2,589,78
28329,1,0.637122399872169,1,5,1,590,78
28329,1,0.610088099958375,2,2,2,591,78
28329,1,0.648174999980256,2,1,2,592,78
28329,1,0.572166299913079,3,4,3,593,78
28329,1,0.539163999957964,3,3,3,594,78
28329,1,0.468076700111851,3,3,3,595,78
28329,1,0.687192999990657,2,2,2,596,78
28329,1,0.578295200131834,1,5,1,597,78
28329,1,0.529456899967045,1,6,1,598,78
28329,1,0.530892600072548,2,1,2,599,78
28329,1,0.539532199967653,2,1,2,600,78
28329,1,0.564021399943158,3,4,3,601,78
28329,0,0.691629000008106,3,1,2,602,78
28329,1,0.54205959988758,1,6,1,603,78
28329,1,0.59860200015828,2,2,2,604,78
28329,1,0.540853400016204,3,3,3,605,78
28329,1,0.933428699849173,1,5,1,606,78
28329,1,0.502250999910757,3,4,3,607,78
28329,1,0.656175000127405,3,4,3,608,78
28329,1,0.604092600056902,3,3,3,609,78
28329,1,0.474194000009447,1,5,1,610,78
28329,1,0.669197200099006,3,3,3,611,78
28329,1,0.536726600024849,2,1,2,612,78
28329,1,0.529195100069046,2,2,2,613,78
28329,1,0.370816299924627,1,6,1,614,78
28329,1,0.490080100018531,1,6,1,615,78
28329,1,0.812797999940813,2,2,2,616,78
28329,1,0.730747999856248,1,5,1,617,78
28329,1,0.555313799995929,3,4,3,618,78
28329,1,0.539555700030178,3,3,3,619,78
28329,1,0.740140300011262,1,6,1,620,78
28329,1,0.876800500089303,3,4,3,621,78
28329,1,0.64819290000014,2,2,2,622,78
28329,1,0.923881799913943,2,1,2,623,78
28329,1,0.74909169995226,2,2,2,624,78
28329,0,0.685583000071347,2,1,3,625,39
28329,1,0.847977299941704,2,2,2,626,39
28329,0,0.595973800169304,2,3,3,627,39
28329,1,0.770847699837759,3,3,3,628,39
28329,0,1.17016360000707,1,1,3,629,39
28329,1,0.673326199874282,3,3,3,630,39
28329,1,0.588572500040755,2,2,2,631,39
28329,1,0.563564900076017,3,1,3,632,39
28329,1,0.658934900071472,2,2,2,633,39
28329,1,0.654808399965987,3,1,3,634,39
28329,1,0.49048150004819,2,2,2,635,39
28329,1,0.317510799970478,3,3,3,636,39
28329,1,0.350749899866059,3,1,3,637,39
28329,1,0.526632700115442,3,3,3,638,39
28329,1,0.71220269985497,2,2,2,639,39
28329,1,0.513856299920008,2,2,2,640,39
28329,1,0.483287699986249,3,1,3,641,39
28329,1,0.486038000090048,3,1,3,642,39
28329,1,0.584426699904725,3,3,3,643,39
28329,1,0.351461299927905,2,2,2,644,39
28329,1,0.4231751000043,3,3,3,645,39
28329,1,0.396813100203872,3,3,3,646,39
28329,1,0.346878800075501,3,1,3,647,39
28329,1,0.402485800208524,2,2,2,648,39
28329,1,0.544622800080106,3,3,3,649,39
28329,1,0.38567869993858,3,1,3,650,39
28329,1,0.448270600056276,3,3,3,651,39
28329,1,0.444151300005615,2,2,2,652,39
28329,1,0.601006799843162,3,1,3,653,39
28329,1,0.630797599907964,2,2,2,654,39
28329,1,0.595153199974447,2,2,2,655,39
28329,1,0.36218209983781,3,3,3,656,39
28329,1,0.426198000088334,3,1,3,657,39
28329,1,0.551321900216863,3,3,3,658,39
28329,1,0.495237600058317,3,1,3,659,39
28329,1,0.330122800078243,2,2,2,660,39
28329,1,0.538828000193462,2,2,2,661,39
28329,1,0.403330000117421,3,1,3,662,39
28329,1,0.945546800037846,3,3,3,663,39
28329,1,0.714518999913707,3,1,3,664,78
28329,1,0.564138100016862,3,2,3,665,78
28329,1,1.24349979986437,1,3,1,666,78
28329,1,0.39180550002493,1,4,1,667,78
28329,1,0.534801500150934,2,5,2,668,78
28329,1,0.511636799899861,2,6,2,669,78
28329,1,0.633475200040266,3,1,3,670,78
28329,1,0.934351000003517,2,5,2,671,78
28329,1,0.847073400160298,3,2,3,672,78
28329,1,0.586857700021937,2,6,2,673,78
28329,1,0.457357199862599,1,3,1,674,78
28329,1,0.517577599966899,1,3,1,675,78
28329,1,0.542779200011864,1,4,1,676,78
28329,1,0.703608599957079,3,2,3,677,78
28329,0,0.649407000048086,2,4,1,678,78
28329,1,1.22139200009406,2,6,2,679,78
28329,1,0.674947999883443,3,1,3,680,78
28329,0,0.830143700120971,1,5,2,681,78
28329,1,0.802738500060514,3,1,3,682,78
28329,1,0.864587100222707,3,2,3,683,78
28329,1,0.740113399922848,1,3,1,684,78
28329,1,0.380960199981928,1,4,1,685,78
28329,1,0.50741759990342,2,5,2,686,78
28329,1,0.421176299918443,2,6,2,687,78
28329,1,0.722520899958909,1,4,1,688,78
28329,1,0.724049000069499,1,3,1,689,78
28329,1,0.717221499886364,1,4,1,690,78
28329,1,0.542820899980143,3,1,3,691,78
28329,1,0.82349790004082,2,5,2,692,78
28329,1,0.516807700041682,2,5,2,693,78
28329,1,0.606368999928236,3,2,3,694,78
28329,1,0.76433809986338,2,6,2,695,78
28329,1,0.539124800125137,1,3,1,696,78
28329,1,0.604113599983975,2,5,2,697,78
28329,1,0.634043300058693,3,2,3,698,78
28329,1,0.366792399901897,3,1,3,699,78
28329,1,0.621931799920276,2,6,2,700,78
28329,1,0.427450400078669,1,4,1,701,78
28329,1,0.337057700147852,1,3,1,702,78
28329,1,0.433517199940979,2,6,2,703,78
28329,1,0.526234100107104,3,2,3,704,78
28329,1,0.463766900124028,2,6,2,705,78
28329,1,0.330285200150684,3,1,3,706,78
28329,1,0.651561800157651,2,5,2,707,78
28329,1,0.439554399810731,3,2,3,708,78
28329,1,0.467895499896258,3,1,3,709,78
28329,1,0.535590299870819,1,4,1,710,78
28329,1,0.327771899988875,1,3,1,711,78
28329,1,0.481396599905565,1,3,1,712,78
28329,1,0.524139099987224,3,2,3,713,78
28329,1,0.541230200091377,2,5,2,714,78
28329,1,0.350189599907026,2,6,2,715,78
28329,1,0.269915000069886,3,1,3,716,78
28329,1,0.425468400120735,3,1,3,717,78
28329,1,0.567086800001562,1,4,1,718,78
28329,1,0.509965599980205,3,1,3,719,78
28329,1,0.695962899830192,2,6,2,720,78
28329,1,0.674920200137421,3,2,3,721,78
28329,1,0.542278799926862,1,3,1,722,78
28329,1,0.55078519997187,2,5,2,723,78
28329,0,0.470627099974081,3,4,1,724,78
28329,1,0.618281700182706,1,4,1,725,78
28329,1,0.527633399935439,1,3,1,726,78
28329,1,0.568973999936134,2,5,2,727,78
28329,1,0.560141399968415,1,3,1,728,78
28329,1,0.560075300047174,3,1,3,729,78
28329,1,0.656144300010055,3,2,3,730,78
28329,1,0.772260700119659,2,6,2,731,78
28329,1,0.659182500094175,2,6,2,732,78
28329,1,0.503473600139841,3,2,3,733,78
28329,1,0.505352899897844,2,5,2,734,78
28329,1,0.491539299953729,1,4,1,735,78
28329,1,0.53424539999105,1,3,1,736,78
28329,1,0.582553199958056,2,6,2,737,78
28329,1,0.60511379991658,1,4,1,738,78
28329,1,0.619215300073847,3,2,3,739,78
28329,1,0.528797199949622,3,1,3,740,78
28329,1,0.930249699857086,3,2,3,741,78
28329,0,1.2852300000377,3,1,2,742,39
28329,0,0.464125800179318,3,2,1,743,39
28329,0,0.347607399802655,3,3,1,744,39
28329,-1,-1,-1,3,1,745,39
28329,1,0.621268999995664,2,1,2,746,39
28329,0,0.658557099988684,2,3,1,747,39
28329,0,0.606716600013897,2,2,1,748,39
28329,1,0.300876700086519,2,1,2,749,39
28329,1,0.518885700032115,1,2,1,750,39
28329,1,0.648095500189811,2,1,2,751,39
28329,1,0.324254400096834,1,2,1,752,39
28329,1,0.293602100107819,1,3,1,753,39
28329,1,0.312139499932528,2,1,2,754,39
28329,1,0.345720099983737,1,3,1,755,39
28329,1,0.362801900133491,1,2,1,756,39
28329,1,0.426847400143743,1,2,1,757,39
28329,1,0.352179200155661,2,1,2,758,39
28329,1,0.32010590005666,2,1,2,759,39
28329,1,0.321590699953958,1,3,1,760,39
28329,1,0.322858100058511,1,2,1,761,39
28329,1,0.268379300134256,1,3,1,762,39
28329,1,0.279548199847341,1,3,1,763,39
28329,1,0.506886700168252,2,1,2,764,39
28329,1,0.244560600025579,1,2,1,765,39
28329,1,0.129473200067878,1,3,1,766,39
28329,1,0.330936300102621,2,1,2,767,39
28329,1,0.227580500068143,1,3,1,768,39
28329,1,0.280470099998638,1,2,1,769,39
28329,1,0.339700100012124,2,1,2,770,39
28329,1,0.356161299860105,1,2,1,771,39
28329,1,0.260100000072271,1,2,1,772,39
28329,1,0.375864799832925,1,3,1,773,39
28329,1,0.263230300042778,2,1,2,774,39
28329,1,0.298868800047785,1,3,1,775,39
28329,0,0.204836999997497,1,1,2,776,39
28329,1,0.338862499920651,1,2,1,777,39
28329,1,0.307563100010157,1,2,1,778,39
28329,1,0.269602900138125,2,1,2,779,39
28329,1,0.40090600005351,1,3,1,780,39
28318,0,0.481615500058979,3,1,1,1,39
28318,0,0.548080599866807,1,2,2,2,39
28318,1,0.508149900007993,2,3,2,3,39
28318,0,0.621975100133568,1,2,2,4,39
28318,0,0.819570699939504,3,1,1,5,39
28318,1,0.60074370005168,2,3,2,6,39
28318,1,0.622955499915406,2,3,2,7,39
28318,0,0.515981400152668,2,1,1,8,39
28318,1,0.812965799821541,2,2,2,9,39
28318,0,0.76271290006116,2,1,1,10,39
28318,1,0.56282339990139,2,2,2,11,39
28318,1,0.626534899929538,2,3,2,12,39
28318,1,0.432245600037277,1,1,1,13,39
28318,1,0.548841400071979,2,3,2,14,39
28318,1,0.853021400049329,2,2,2,15,39
28318,1,0.47275109984912,2,2,2,16,39
28318,1,0.5001564999111,2,3,2,17,39
28318,1,0.486302000004798,1,1,1,18,39
28318,1,0.584756399970502,2,3,2,19,39
28318,1,0.423185100080445,2,2,2,20,39
28318,1,0.46855270001106,1,1,1,21,39
28318,1,0.599903699941933,1,1,1,22,39
28318,1,0.469968899851665,2,3,2,23,39
28318,1,0.425243200035766,2,2,2,24,39
28318,1,0.526701900176704,2,3,2,25,39
28318,1,0.424102899851277,2,2,2,26,39
28318,1,0.397612700005993,1,1,1,27,39
28318,1,0.59523559990339,1,1,1,28,39
28318,1,0.466255400096998,2,2,2,29,39
28318,1,0.709193299990147,2,3,2,30,39
28318,1,0.463655199855566,2,3,2,31,39
28318,1,0.49049499980174,2,2,2,32,39
28318,1,0.493467299966142,1,1,1,33,39
28318,1,0.560210600029677,1,1,1,34,39
28318,1,0.47224529995583,2,3,2,35,39
28318,1,0.515712099848315,2,2,2,36,39
28318,1,0.613228800008073,2,3,2,37,39
28318,1,0.658617200097069,2,2,2,38,39
28318,1,0.526923199882731,1,1,1,39,39
28318,0,0.558471800060943,3,1,1,40,78
28318,0,0.542771400185302,3,2,1,41,78
28318,0,0.743298900080845,3,3,2,42,78
28318,0,0.584383399924263,3,4,2,43,78
28318,1,0.574603299843147,3,5,3,44,78
28318,1,0.950000700075179,3,6,3,45,78
28318,1,0.894145499914885,1,2,1,46,78
28318,0,0.816887499997392,1,5,3,47,78
28318,0,0.638033600058407,2,1,1,48,78
28318,0,0.54691440006718,1,4,2,49,78
28318,0,0.754601900000125,2,1,1,50,78
28318,0,0.730880399933085,1,3,2,51,78
28318,1,0.65959189995192,3,6,3,52,78
28318,1,0.623617899836972,3,6,3,53,78
28318,1,0.780857300153002,2,4,2,54,78
28318,1,0.6676002999302,2,3,2,55,78
28318,1,0.670776900136843,1,2,1,56,78
28318,1,0.650128800189123,3,5,3,57,78
28318,0,0.678185499971732,2,1,1,58,78
28318,1,0.625207100063562,1,2,1,59,78
28318,1,0.582526299869642,2,3,2,60,78
28318,1,0.861676899949089,2,4,2,61,78
28318,1,0.617594599956647,3,5,3,62,78
28318,0,0.622433200012892,1,6,3,63,78
28318,0,0.787919300142676,1,3,2,64,78
28318,1,0.594560700003058,1,1,1,65,78
28318,1,0.561707600019872,2,4,2,66,78
28318,1,0.705193300032988,1,2,1,67,78
28318,0,0.667231200030074,2,5,3,68,78
28318,1,0.582788300001994,2,4,2,69,78
28318,1,0.501393999904394,3,6,3,70,78
28318,1,0.719660700066015,3,6,3,71,78
28318,1,0.560807599918917,1,2,1,72,78
28318,1,0.576823699986562,2,3,2,73,78
28318,0,0.48823960009031,2,2,1,74,78
28318,1,0.602957499912009,1,1,1,75,78
28318,1,0.584807100007311,3,5,3,76,78
28318,1,0.559221599949524,3,6,3,77,78
28318,1,0.655595100019127,2,4,2,78,78
28318,1,0.539535700110719,3,5,3,79,78
28318,1,0.652387399924919,3,5,3,80,78
28318,1,0.632158600026742,3,6,3,81,78
28318,1,0.65276820003055,2,3,2,82,78
28318,1,0.520886800019071,1,1,1,83,78
28318,0,0.618079599924386,3,3,2,84,78
28318,1,0.599342699861154,1,2,1,85,78
28318,1,0.613136099884287,1,1,1,86,78
28318,1,0.56263229995966,2,4,2,87,78
28318,1,0.634729599812999,3,6,3,88,78
28318,0,0.599529299885035,3,4,2,89,78
28318,1,0.653266900219023,3,5,3,90,78
28318,1,0.593437700066715,1,2,1,91,78
28318,1,0.640070100082085,3,6,3,92,78
28318,1,0.548703599954024,1,1,1,93,78
28318,1,0.564877100056037,2,3,2,94,78
28318,0,0.780162600101903,3,3,2,95,78
28318,1,0.55466330004856,1,2,1,96,78
28318,1,0.682992000132799,1,1,1,97,78
28318,1,0.581279299920425,3,5,3,98,78
28318,1,0.668261799961329,2,4,2,99,78
28318,0,0.535695700207725,1,5,3,100,78
28318,1,0.60821620002389,2,3,2,101,78
28318,0,0.622262199874967,3,4,2,102,78
28318,1,0.659453199943528,3,6,3,103,78
28318,1,0.479288100032136,3,6,3,104,78
28318,1,0.450715600047261,1,1,1,105,78
28318,1,0.61491040000692,1,2,1,106,78
28318,1,0.42026640009135,2,4,2,107,78
28318,1,0.617503799963742,1,1,1,108,78
28318,1,0.967032300075516,3,5,3,109,78
28318,0,0.718220199923962,2,2,1,110,78
28318,0,0.839473200030625,2,5,3,111,78
28318,1,0.492318199947476,2,3,2,112,78
28318,0,0.726668199989945,3,1,1,113,78
28318,1,0.711967200040817,2,4,2,114,78
28318,1,0.634276600088924,3,6,3,115,78
28318,1,0.65504530002363,1,2,1,116,78
28318,1,0.562877800082788,1,2,1,117,78
28318,0,0.443141000112519,3,1,1,118,39
28318,1,0.470507099991664,3,2,3,119,39
28318,1,0.442471800139174,3,3,3,120,39
28318,1,0.718867999967188,3,2,3,121,39
28318,1,0.632695199921727,1,1,1,122,39
28318,1,0.636608400149271,3,3,3,123,39
28318,0,0.63360260007903,1,3,3,124,39
28318,0,0.590229500085115,3,1,1,125,39
28318,1,0.445062899962068,3,2,3,126,39
28318,1,0.513540599960834,1,1,1,127,39
28318,1,0.522559099830687,3,2,3,128,39
28318,1,0.612174099776894,3,3,3,129,39
28318,1,0.402650499949232,1,1,1,130,39
28318,1,0.720301999943331,3,3,3,131,39
28318,1,0.601605599978939,3,2,3,132,39
28318,1,0.575659499969333,3,2,3,133,39
28318,1,0.606811600038782,3,3,3,134,39
28318,1,0.405249299947172,1,1,1,135,39
28318,1,0.570832799887285,3,3,3,136,39
28318,1,0.570339499972761,3,2,3,137,39
28318,1,0.545314299874008,1,1,1,138,39
28318,1,0.47397549985908,1,1,1,139,39
28318,1,0.573452799813822,3,3,3,140,39
28318,1,0.540953999850899,3,2,3,141,39
28318,1,0.589423600118607,3,3,3,142,39
28318,1,0.548179500037804,3,2,3,143,39
28318,1,0.588154400000349,1,1,1,144,39
28318,1,0.618777900002897,1,1,1,145,39
28318,1,0.464011899894103,3,2,3,146,39
28318,1,0.683329400140792,3,3,3,147,39
28318,1,0.678206499898806,3,3,3,148,39
28318,1,0.521922399988398,3,2,3,149,39
28318,1,0.514766899868846,1,1,1,150,39
28318,1,0.484159900108352,1,1,1,151,39
28318,1,0.494980499846861,3,3,3,152,39
28318,1,0.505668800091371,3,2,3,153,39
28318,1,0.635586299933493,3,3,3,154,39
28318,1,0.520099599845707,3,2,3,155,39
28318,1,0.553529300028458,1,1,1,156,39
28318,0,0.49275720003061,3,1,2,157,39
28318,0,0.367672299966216,3,2,2,158,39
28318,0,0.558799200225621,3,3,1,159,39
28318,0,0.470758100040257,1,2,2,160,39
28318,0,0.505980200134218,1,1,2,161,39
28318,1,0.42819569981657,1,3,1,162,39
28318,1,0.681530700065196,1,3,1,163,39
28318,1,0.48441749997437,2,1,2,164,39
28318,1,0.494815799873322,2,2,2,165,39
28318,0,0.657464100047946,1,1,2,166,39
28318,1,0.837702200049534,2,2,2,167,39
28318,1,0.546128900023177,1,3,1,168,39
28318,1,0.458995300112292,2,1,2,169,39
28318,1,0.550808199914172,1,3,1,170,39
28318,1,0.526870900066569,2,2,2,171,39
28318,1,0.504212599946186,2,2,2,172,39
28318,1,0.594275099923834,1,3,1,173,39
28318,0,0.664841700112447,1,1,2,174,39
28318,1,0.660102300113067,1,3,1,175,39
28318,1,0.624126499984413,2,2,2,176,39
28318,1,0.493281699949875,2,1,2,177,39
28318,1,0.584266900084913,2,1,2,178,39
28318,1,0.518990499898791,1,3,1,179,39
28318,1,0.648236199980602,2,2,2,180,39
28318,1,0.571984799811617,1,3,1,181,39
28318,1,0.579380000010133,2,2,2,182,39
28318,1,0.586845900164917,2,1,2,183,39
28318,1,0.545439400011674,2,1,2,184,39
28318,1,0.513941000215709,2,2,2,185,39
28318,1,0.435606400016695,1,3,1,186,39
28318,1,0.576331100193784,1,3,1,187,39
28318,1,0.567281999858096,2,2,2,188,39
28318,1,0.758672300027683,2,1,2,189,39
28318,1,0.534844900015742,2,1,2,190,39
28318,1,0.463364300085232,1,3,1,191,39
28318,1,0.506823999807239,2,2,2,192,39
28318,1,0.564756300067529,1,3,1,193,39
28318,1,0.524109400110319,2,2,2,194,39
28318,1,0.581753399921581,2,1,2,195,39
28318,0,0.598613800015301,3,1,2,196,78
28318,0,0.460657200077549,3,2,2,197,78
28318,1,0.408869300037622,3,3,3,198,78
28318,1,0.542822300223634,3,4,3,199,78
28318,1,0.5992473999504,1,5,1,200,78
28318,0,0.493528400082141,3,6,1,201,78
28318,0,0.768232400063425,3,2,2,202,78
28318,1,0.71957670012489,1,5,1,203,78
28318,0,0.496622800128534,1,1,2,204,78
28318,1,0.858870500000194,3,4,3,205,78
28318,0,0.40697899996303,1,1,2,206,78
28318,1,0.637142699910328,3,3,3,207,78
28318,1,0.633488900028169,1,6,1,208,78
28318,0,0.798111099982634,2,6,1,209,78
28318,1,0.732214200077578,3,4,3,210,78
28318,1,0.797013000119478,3,3,3,211,78
28318,1,0.818865499924868,2,2,2,212,78
28318,0,0.848470699973404,3,5,1,213,78
28318,1,0.964018199825659,2,1,2,214,78
28318,1,0.683703399961814,2,2,2,215,78
28318,1,0.598213199991733,3,3,3,216,78
28318,1,0.77990430011414,3,4,3,217,78
28318,1,0.586937099928036,1,5,1,218,78
28318,0,0.585546099813655,2,6,1,219,78
28318,1,0.680199699942023,3,3,3,220,78
28318,1,0.658837700029835,2,1,2,221,78
28318,1,0.646674599964172,3,4,3,222,78
28318,1,0.698857199866325,2,2,2,223,78
28318,1,0.701099199941382,1,5,1,224,78
28318,1,0.550827400060371,3,4,3,225,78
28318,0,0.590648999903351,2,6,1,226,78
28318,1,0.581667200196534,1,6,1,227,78
28318,1,0.596265899948776,2,2,2,228,78
28318,1,0.62669529998675,3,3,3,229,78
28318,1,0.664206500165164,2,2,2,230,78
28318,0,0.684350299881771,1,1,2,231,78
28318,1,0.64647169993259,1,5,1,232,78
28318,1,0.538718200055882,1,6,1,233,78
28318,1,0.627873799996451,3,4,3,234,78
28318,0,0.600594399962574,3,5,1,235,78
28318,1,0.615023999940604,1,5,1,236,78
28318,1,0.629101800033823,1,6,1,237,78
28318,1,0.593600699910894,3,3,3,238,78
28318,0,0.6563363999594,1,1,2,239,78
28318,1,0.716305200010538,3,3,3,240,78
28318,1,0.637685499852523,2,2,2,241,78
28318,1,0.62631419999525,2,1,2,242,78
28318,1,0.575537399854511,3,4,3,243,78
28318,1,0.590680500026792,1,6,1,244,78
28318,1,0.653539699967951,3,4,3,245,78
28318,1,0.505625399993733,1,5,1,246,78
28318,1,0.69975130003877,2,2,2,247,78
28318,0,0.789612299995497,2,6,1,248,78
28318,0,0.772024299949408,3,1,2,249,78
28318,1,0.635645899921656,3,3,3,250,78
28318,0,0.672352199908346,1,3,3,251,78
28318,1,0.61154399998486,2,2,2,252,78
28318,1,0.697560500120744,2,1,2,253,78
28318,1,0.587713500019163,1,5,1,254,78
28318,1,0.514244900085032,3,4,3,255,78
28318,1,0.571347000077367,1,5,1,256,78
28318,1,0.59516859985888,3,3,3,257,78
28318,1,0.737622200045735,3,4,3,258,78
28318,1,0.617959799943492,1,6,1,259,78
28318,0,0.695548000046983,2,6,1,260,78
28318,1,0.618216800037771,2,1,2,261,78
28318,0,0.671698099933565,1,2,2,262,78
28318,1,0.522728499956429,3,4,3,263,78
28318,1,0.707987099885941,2,1,2,264,78
28318,1,0.59823689982295,1,5,1,265,78
28318,1,0.668336499948055,2,2,2,266,78
28318,1,0.527697200188413,1,5,1,267,78
28318,1,0.584727799985558,3,3,3,268,78
28318,1,0.583805399946868,2,1,2,269,78
28318,1,0.630022500175983,3,4,3,270,78
28318,0,0.730981000000611,2,6,1,271,78
28318,0,0.619719799840823,3,2,2,272,78
28318,1,0.568908900022507,2,2,2,273,78
28318,1,0.448904199991375,3,1,3,274,39
28318,0,0.468763899989426,3,2,2,275,39
28318,1,0.631886400049552,3,3,3,276,39
28318,0,0.580959599930793,1,2,2,277,39
28318,1,0.675558000104502,3,1,3,278,39
28318,1,0.590907300123945,3,3,3,279,39
28318,1,0.71775500010699,3,3,3,280,39
28318,1,0.590630300110206,3,1,3,281,39
28318,1,0.373750299913809,2,2,2,282,39
28318,1,0.516800799872726,3,1,3,283,39
28318,1,0.638391100103036,2,2,2,284,39
28318,1,0.482857000082731,3,3,3,285,39
28318,1,0.413296099985018,3,1,3,286,39
28318,1,0.498776199994609,3,3,3,287,39
28318,1,0.437037399969995,2,2,2,288,39
28318,1,0.553649100009352,2,2,2,289,39
28318,1,0.50560380006209,3,3,3,290,39
28318,1,0.467264599865302,3,1,3,291,39
28318,1,0.51087040011771,3,3,3,292,39
28318,1,0.42499789991416,2,2,2,293,39
28318,1,0.422310299938545,3,1,3,294,39
28318,1,0.507718000095338,3,1,3,295,39
28318,1,0.445826999843121,3,3,3,296,39
28318,1,0.553971600020304,2,2,2,297,39
28318,0,0.521948300069198,2,3,3,298,39
28318,1,0.555588700110093,2,2,2,299,39
28318,1,0.499610200058669,3,1,3,300,39
28318,1,0.517564499983564,3,1,3,301,39
28318,1,0.510694799944758,2,2,2,302,39
28318,1,0.640684599988163,3,3,3,303,39
28318,1,0.48570379987359,3,3,3,304,39
28318,1,0.423978000180796,2,2,2,305,39
28318,1,0.493320400128141,3,1,3,306,39
28318,1,0.520318299997598,3,1,3,307,39
28318,1,0.473532600095496,3,3,3,308,39
28318,1,0.532978000119328,2,2,2,309,39
28318,1,0.46963860001415,3,3,3,310,39
28318,1,0.520834299968556,2,2,2,311,39
28318,1,0.514236999908462,3,1,3,312,39
28318,1,0.46902780001983,3,1,3,313,78
28318,1,0.536295699886978,3,2,3,314,78
28318,0,0.528584300074726,3,3,1,315,78
28318,0,0.578360699815676,3,4,1,316,78
28318,0,0.521617900114506,3,5,2,317,78
28318,0,0.482397100189701,3,6,2,318,78
28318,1,0.589648900087923,3,2,3,319,78
28318,0,0.572236499981955,1,5,2,320,78
28318,1,0.627542099915445,3,1,3,321,78
28318,1,0.552639500005171,1,4,1,322,78
28318,1,0.56891810009256,3,1,3,323,78
28318,1,0.551959099946544,1,3,1,324,78
28318,1,0.647944299969822,2,6,2,325,78
28318,1,0.556201099883765,2,6,2,326,78
28318,1,0.61211089999415,1,4,1,327,78
28318,1,0.522017000010237,1,3,1,328,78
28318,1,0.619614399969578,3,2,3,329,78
28318,1,0.713164899963886,2,5,2,330,78
28318,1,0.73892159992829,3,1,3,331,78
28318,1,0.651476299855858,3,2,3,332,78
28318,1,0.471272999886423,1,3,1,333,78
28318,1,0.434673600131646,1,4,1,334,78
28318,1,0.5197266000323,2,5,2,335,78
28318,1,0.521045299945399,2,6,2,336,78
28318,1,0.690011100145057,1,3,1,337,78
28318,1,0.605110599892214,3,1,3,338,78
28318,1,0.554898800095543,1,4,1,339,78
28318,1,0.482878299895674,3,2,3,340,78
28318,1,0.573266300139949,2,5,2,341,78
28318,1,0.581025699852034,1,4,1,342,78
28318,1,0.539392900187522,2,6,2,343,78
28318,1,0.580126800108701,2,6,2,344,78
28318,1,0.546985799912363,3,2,3,345,78
28318,1,0.578595700208098,1,3,1,346,78
28318,1,0.682080000173301,3,2,3,347,78
28318,1,0.588825300103053,3,1,3,348,78
28318,1,0.531851700041443,2,5,2,349,78
28318,1,0.636164000025019,2,6,2,350,78
28318,1,0.520896699978039,1,4,1,351,78
28318,1,0.530325799947605,2,5,2,352,78
28318,1,0.602650700137019,2,5,2,353,78
28318,1,0.576959199970588,2,6,2,354,78
28318,1,0.560002699960023,1,3,1,355,78
28318,1,0.615885399980471,3,1,3,356,78
28318,1,0.533701400039718,1,3,1,357,78
28318,1,0.606367999920622,3,2,3,358,78
28318,1,0.548460599966347,3,1,3,359,78
28318,0,0.676122299861163,3,4,1,360,78
28318,1,0.527546299854293,2,6,2,361,78
28318,1,0.529031799873337,1,4,1,362,78
28318,1,0.51446729991585,2,5,2,363,78
28318,1,0.53164319996722,3,2,3,364,78
28318,1,0.620252799941227,2,6,2,365,78
28318,1,0.601666399976239,3,1,3,366,78
28318,1,0.607745699817315,1,3,1,367,78
28318,1,0.501318900147453,1,3,1,368,78
28318,1,0.687781299930066,3,2,3,369,78
28318,1,0.55419549997896,3,1,3,370,78
28318,1,0.561906700022519,2,5,2,371,78
28318,1,0.498292400036007,1,4,1,372,78
28318,1,0.491906800074503,2,5,2,373,78
28318,1,0.534814800135791,1,3,1,374,78
28318,1,0.543635500129312,1,4,1,375,78
28318,1,0.600475799990818,2,6,2,376,78
28318,1,0.77429879992269,2,6,2,377,78
28318,1,0.621719299815595,3,1,3,378,78
28318,1,0.579120500013232,3,2,3,379,78
28318,1,0.545906499959528,1,4,1,380,78
28318,1,0.60301289986819,3,1,3,381,78
28318,1,0.497070800047368,2,5,2,382,78
28318,1,0.55506750009954,3,2,3,383,78
28318,1,0.546970499912277,2,5,2,384,78
28318,1,0.522839399985969,1,3,1,385,78
28318,1,0.516240600030869,3,1,3,386,78
28318,1,0.589386799838394,1,4,1,387,78
28318,1,0.532170099904761,2,6,2,388,78
28318,1,0.532974099973217,3,2,3,389,78
28318,1,0.605743499938399,3,2,3,390,78
28318,0,0.451607800088823,3,1,1,391,78
28318,0,0.407370599918067,3,2,1,392,78
28318,0,0.453471600078046,3,3,2,393,78
28318,0,0.46554489992559,3,4,2,394,78
28318,1,0.381135100033134,3,5,3,395,78
28318,1,0.411531700054184,3,6,3,396,78
28318,1,0.529615700012073,1,2,1,397,78
28318,1,0.771296999882907,3,5,3,398,78
28318,1,0.585947599960491,1,1,1,399,78
28318,1,0.537000200012699,2,4,2,400,78
28318,1,0.665309899952263,1,1,1,401,78
28318,0,0.756624200148508,1,3,2,402,78
28318,1,0.605060599977151,3,6,3,403,78
28318,1,0.643004199955612,3,6,3,404,78
28318,0,0.775640500010923,1,4,2,405,78
28318,1,0.647074300097302,2,3,2,406,78
28318,1,0.626966600073501,1,2,1,407,78
28318,1,0.728230800013989,3,5,3,408,78
28318,0,0.617686999961734,2,1,1,409,78
28318,1,0.590609600069001,1,2,1,410,78
28318,1,0.598504999885336,2,3,2,411,78
28318,1,0.459297599969432,2,4,2,412,78
28318,1,0.687637400114909,3,5,3,413,78
28318,1,0.538293600082397,3,6,3,414,78
28318,1,0.538939699996263,2,3,2,415,78
28318,1,0.387561500072479,1,1,1,416,78
28318,1,0.522457299986854,2,4,2,417,78
28318,1,0.619879399891943,1,2,1,418,78
28318,1,0.537007699953392,3,5,3,419,78
28318,1,0.513349599903449,2,4,2,420,78
28318,1,0.578920600004494,3,6,3,421,78
28318,1,0.506277899956331,3,6,3,422,78
28318,1,0.572433799970895,1,2,1,423,78
28318,1,0.523261399939656,2,3,2,424,78
28318,1,0.540884200017899,1,2,1,425,78
28318,1,0.709646499948576,1,1,1,426,78
28318,1,0.519648400135338,3,5,3,427,78
28318,1,0.497292499989271,3,6,3,428,78
28318,1,0.52290720003657,2,4,2,429,78
28318,1,0.627976099960506,3,5,3,430,78
28318,0,0.497676699887961,1,5,3,431,78
28318,1,0.555573200108483,3,6,3,432,78
28318,1,0.571305100107566,2,3,2,433,78
28318,1,0.466788899851963,1,1,1,434,78
28318,1,0.534456999972463,2,3,2,435,78
28318,1,0.470970300026238,1,2,1,436,78
28318,1,0.522169400006533,1,1,1,437,78
28318,1,0.483502699993551,2,4,2,438,78
28318,1,0.534176700050011,3,6,3,439,78
28318,1,0.534945399966091,2,4,2,440,78
28318,1,0.583893500035629,3,5,3,441,78
28318,1,0.55035679996945,1,2,1,442,78
28318,1,0.494178100023419,3,6,3,443,78
28318,1,0.496984499972314,1,1,1,444,78
28318,1,0.554691199911758,2,3,2,445,78
28318,1,0.50687519996427,2,3,2,446,78
28318,1,0.525071099866182,1,2,1,447,78
28318,1,0.622359399916604,1,1,1,448,78
28318,1,0.507884499849752,3,5,3,449,78
28318,1,0.453834899934009,2,4,2,450,78
28318,1,0.481524700066075,3,5,3,451,78
28318,1,0.492442299844697,2,3,2,452,78
28318,1,0.486769699957222,2,4,2,453,78
28318,1,0.529712100047618,3,6,3,454,78
28318,1,0.48273010016419,3,6,3,455,78
28318,1,0.461759899975732,1,1,1,456,78
28318,1,0.545678599970415,1,2,1,457,78
28318,1,0.546322300098836,2,4,2,458,78
28318,1,0.666703900089487,1,1,1,459,78
28318,1,0.670027800137177,3,5,3,460,78
28318,1,0.513664599973708,1,2,1,461,78
28318,1,0.531135599827394,3,5,3,462,78
28318,1,0.523698300123215,2,3,2,463,78
28318,1,0.564998399931937,1,1,1,464,78
28318,1,0.532403799938038,2,4,2,465,78
28318,1,0.525341700064018,3,6,3,466,78
28318,1,0.477971500018612,1,2,1,467,78
28318,1,0.601676099933684,1,2,1,468,78
28318,0,0.338892900152132,3,1,1,469,39
28318,1,0.299460799898952,3,2,3,470,39
28318,1,0.445847099879757,3,3,3,471,39
28318,1,0.706320299999788,3,2,3,472,39
28318,1,0.740481599932536,1,1,1,473,39
28318,1,0.613204200053588,3,3,3,474,39
28318,1,0.578817400150001,3,3,3,475,39
28318,1,0.330070600146428,1,1,1,476,39
28318,1,0.530933499801904,3,2,3,477,39
28318,1,0.531745499931276,1,1,1,478,39
28318,1,0.38826739997603,3,2,3,479,39
28318,1,0.483230800135061,3,3,3,480,39
28318,1,0.357814500108361,1,1,1,481,39
28318,1,0.493665300076827,3,3,3,482,39
28318,1,0.552477399818599,3,2,3,483,39
28318,1,0.520320800133049,3,2,3,484,39
28318,1,0.641813999973238,3,3,3,485,39
28318,1,0.550338099943474,1,1,1,486,39
28318,1,0.518377900123596,3,3,3,487,39
28318,1,0.503733200021088,3,2,3,488,39
28318,1,0.417572500184178,1,1,1,489,39
28318,1,0.574680099962279,1,1,1,490,39
28318,1,0.438399800099432,3,3,3,491,39
28318,1,0.490860899910331,3,2,3,492,39
28318,1,0.501369399949908,3,3,3,493,39
28318,1,0.4877566001378,3,2,3,494,39
28318,1,0.370345399947837,1,1,1,495,39
28318,1,0.489535099826753,1,1,1,496,39
28318,1,0.46006860001944,3,2,3,497,39
28318,1,0.528497799998149,3,3,3,498,39
28318,1,0.51361080002971,3,3,3,499,39
28318,1,0.514990899944678,3,2,3,500,39
28318,1,0.460159899899736,1,1,1,501,39
28318,1,0.51224929979071,1,1,1,502,39
28318,1,0.674300899961963,3,3,3,503,39
28318,1,0.493659500032663,3,2,3,504,39
28318,1,0.544308800017461,3,3,3,505,39
28318,1,0.472975299926475,3,2,3,506,39
28318,1,0.420305700041354,1,1,1,507,39
28318,0,0.492133300052956,3,1,2,508,39
28318,0,0.398731499910355,3,2,2,509,39
28318,0,0.357023000018671,3,3,1,510,39
28318,0,0.516998900100589,1,2,2,511,39
28318,0,0.47835800005123,1,1,2,512,39
28318,1,0.761442099930719,1,3,1,513,39
28318,1,0.801632100017741,1,3,1,514,39
28318,1,0.439661300042644,2,1,2,515,39
28318,1,0.452271800022572,2,2,2,516,39
28318,1,0.656214499846101,2,1,2,517,39
28318,1,0.436299100052565,2,2,2,518,39
28318,1,0.376745599787682,1,3,1,519,39
28318,1,0.440401999978349,2,1,2,520,39
28318,1,0.532699699979275,1,3,1,521,39
28318,1,0.501534699928015,2,2,2,522,39
28318,1,0.57641899981536,2,2,2,523,39
28318,1,0.398951100185513,1,3,1,524,39
28318,1,0.348984599811956,2,1,2,525,39
28318,1,0.540628999937326,1,3,1,526,39
28318,1,0.485639400081709,2,2,2,527,39
28318,1,0.52001199987717,2,1,2,528,39
28318,1,0.489727300126106,2,1,2,529,39
28318,1,0.420421800110489,1,3,1,530,39
28318,1,0.553780500078574,2,2,2,531,39
28318,1,0.857848899904639,1,3,1,532,39
28318,1,0.509362900163978,2,2,2,533,39
28318,1,0.527696399949491,2,1,2,534,39
28318,1,0.496754999971017,2,1,2,535,39
28318,1,0.627056499943137,2,2,2,536,39
28318,1,0.463977399980649,1,3,1,537,39
28318,1,0.635480700060725,1,3,1,538,39
28318,1,0.696444100001827,2,2,2,539,39
28318,1,0.602942800149322,2,1,2,540,39
28318,1,0.552959700115025,2,1,2,541,39
28318,1,0.577350299805403,1,3,1,542,39
28318,1,0.496174100087956,2,2,2,543,39
28318,1,0.555145299993455,1,3,1,544,39
28318,1,0.482759000035003,2,2,2,545,39
28318,1,0.525645999936387,2,1,2,546,39
28318,0,0.450776699930429,3,1,2,547,78
28318,0,0.37510020006448,3,2,2,548,78
28318,1,0.350031699985266,3,3,3,549,78
28318,1,0.446292100008577,3,4,3,550,78
28318,1,0.427086800104007,1,5,1,551,78
28318,1,0.504346500150859,1,6,1,552,78
28318,1,0.498464799951762,2,2,2,553,78
28318,0,0.668499399907887,2,5,1,554,78
28318,1,0.791661700000986,2,1,2,555,78
28318,1,0.678465900011361,3,4,3,556,78
28318,0,0.665819599991664,3,1,2,557,78
28318,1,0.797125899931416,3,3,3,558,78
28318,0,0.699067699955776,2,6,1,559,78
28318,1,0.501047300174832,1,6,1,560,78
28318,1,0.590930699836463,3,4,3,561,78
28318,0,0.565542599884793,2,3,3,562,78
28318,1,0.708473799983039,2,2,2,563,78
28318,0,0.790155199822038,3,5,1,564,78
28318,1,0.732699499931186,2,1,2,565,78
28318,1,0.733611899893731,2,2,2,566,78
28318,0,0.574017599923536,1,3,3,567,78
28318,1,0.629451799904928,3,4,3,568,78
28318,0,0.818718999857083,2,5,1,569,78
28318,0,0.736880399985239,2,6,1,570,78
28318,0,0.873000399908051,1,3,3,571,78
28318,1,0.724570099962875,2,1,2,572,78
28318,1,0.421879299916327,3,4,3,573,78
28318,0,0.666991899954155,3,2,2,574,78
28318,1,0.5820442000404,1,5,1,575,78
28318,1,0.685064200079069,3,4,3,576,78
28318,1,0.75187460007146,1,6,1,577,78
28318,1,0.551648899912834,1,6,1,578,78
28318,1,0.607644899981096,2,2,2,579,78
28318,0,0.629660400096327,2,3,3,580,78
28318,1,0.730968999909237,2,2,2,581,78
28318,1,0.787386200157925,2,1,2,582,78
28318,1,0.642344699939713,1,5,1,583,78
28318,1,0.823076799977571,1,6,1,584,78
28318,1,0.64442429994233,3,4,3,585,78
28318,1,0.640985100064427,1,5,1,586,78
28318,1,0.501667900010943,1,5,1,587,78
28318,1,0.535650199977681,1,6,1,588,78
28318,1,0.608494400046766,3,3,3,589,78
28318,1,0.526499199913815,2,1,2,590,78
28318,1,0.655446900054812,3,3,3,591,78
28318,1,0.54787480016239,2,2,2,592,78
28318,1,0.611703499918804,2,1,2,593,78
28318,1,0.59349470003508,3,4,3,594,78
28318,1,0.55234819999896,1,6,1,595,78
28318,1,0.6244361998979,3,4,3,596,78
28318,1,0.549619199940935,1,5,1,597,78
28318,1,0.565589299891144,2,2,2,598,78
28318,0,0.55702649988234,2,6,1,599,78
28318,1,0.652892299927771,2,1,2,600,78
28318,0,0.608778999885544,1,3,3,601,78
28318,1,0.526951200095937,3,3,3,602,78
28318,1,0.65641549997963,2,2,2,603,78
28318,1,0.572321600047871,2,1,2,604,78
28318,1,0.563700299942866,1,5,1,605,78
28318,1,0.475076300092041,3,4,3,606,78
28318,1,0.542323099914938,1,5,1,607,78
28318,1,0.61496050003916,3,3,3,608,78
28318,1,0.620154799893498,3,4,3,609,78
28318,1,0.529632500139996,1,6,1,610,78
28318,1,0.483044099994004,1,6,1,611,78
28318,1,0.749818600015715,2,1,2,612,78
28318,1,0.637411399977282,2,2,2,613,78
28318,1,0.586429399903864,3,4,3,614,78
28318,1,0.585026599932462,2,1,2,615,78
28318,1,0.519783199997619,1,5,1,616,78
28318,1,0.609044099925086,2,2,2,617,78
28318,1,0.543170999968424,1,5,1,618,78
28318,1,0.583687799982727,3,3,3,619,78
28318,1,0.54252010001801,2,1,2,620,78
28318,1,0.582915800157934,3,4,3,621,78
28318,1,0.485716799972579,1,6,1,622,78
28318,1,0.544081100029871,2,2,2,623,78
28318,1,0.576815699925646,2,2,2,624,78
28318,1,0.454752800054848,3,1,3,625,39
28318,0,0.522158999927342,3,2,2,626,39
28318,1,0.46774120000191,3,3,3,627,39
28318,0,0.639099700143561,1,2,2,628,39
28318,1,0.539929800201207,3,1,3,629,39
28318,1,0.612325299996883,3,3,3,630,39
28318,1,0.449919100152329,3,3,3,631,39
28318,1,0.486490099923685,3,1,3,632,39
28318,1,0.393233699956909,2,2,2,633,39
28318,1,0.631473399931565,3,1,3,634,39
28318,1,0.524086100049317,2,2,2,635,39
28318,1,0.46941679995507,3,3,3,636,39
28318,1,0.481017099926248,3,1,3,637,39
28318,1,0.467866499908268,3,3,3,638,39
28318,1,0.399207100039348,2,2,2,639,39
28318,1,0.485094300005585,2,2,2,640,39
28318,1,0.487774699926376,3,3,3,641,39
28318,1,0.466422100085765,3,1,3,642,39
28318,1,0.501818799879402,3,3,3,643,39
28318,1,0.503500800114125,2,2,2,644,39
28318,1,0.44170040008612,3,1,3,645,39
28318,1,0.534111800137907,3,1,3,646,39
28318,0,0.503178900107741,2,3,3,647,39
28318,1,0.592822200153023,2,2,2,648,39
28318,1,0.559686499880627,3,3,3,649,39
28318,0,0.567591999890283,3,2,2,650,39
28318,1,0.342874299967661,3,1,3,651,39
28318,1,0.431910800049081,3,1,3,652,39
28318,1,0.500528899952769,2,2,2,653,39
28318,1,0.390545299975201,3,3,3,654,39
28318,1,0.380961899878457,3,3,3,655,39
28318,1,0.371561500011012,2,2,2,656,39
28318,1,0.474734199931845,3,1,3,657,39
28318,1,0.414158400148153,3,1,3,658,39
28318,1,0.427199699915946,3,3,3,659,39
28318,1,0.40889920014888,2,2,2,660,39
28318,1,0.406954299891368,3,3,3,661,39
28318,1,0.477121700067073,2,2,2,662,39
28318,1,0.352417800109833,3,1,3,663,39
28318,1,0.469072100007907,3,1,3,664,78
28318,1,0.448403100017458,3,2,3,665,78
28318,1,0.556505399988964,1,3,1,666,78
28318,1,0.532475099898875,1,4,1,667,78
28318,1,0.508802100084722,2,5,2,668,78
28318,1,0.45506770000793,2,6,2,669,78
28318,0,0.698993799975142,1,2,3,670,78
28318,0,0.812972499988973,1,5,2,671,78
28318,1,0.683119500055909,3,1,3,672,78
28318,1,0.701720600016415,1,4,1,673,78
28318,1,0.695671499939635,3,1,3,674,78
28318,0,0.634400999872014,2,3,1,675,78
28318,1,0.631062499945983,2,6,2,676,78
28318,1,0.53964460012503,2,6,2,677,78
28318,1,0.980371299898252,1,4,1,678,78
28318,1,0.979053500108421,1,3,1,679,78
28318,1,0.794348499970511,3,2,3,680,78
28318,0,0.841094100149348,1,5,2,681,78
28318,1,0.693467299919575,3,1,3,682,78
28318,1,0.656370799988508,3,2,3,683,78
28318,1,0.660080800065771,1,3,1,684,78
28318,1,0.72854180005379,1,4,1,685,78
28318,1,0.578284400049597,2,5,2,686,78
28318,1,0.457146500004455,2,6,2,687,78
28318,1,0.564851599978283,1,3,1,688,78
28318,1,0.628648499958217,3,1,3,689,78
28318,1,0.585725200129673,1,4,1,690,78
28318,1,0.624262399971485,3,2,3,691,78
28318,1,0.645518700126559,2,5,2,692,78
28318,1,0.682273900136352,1,4,1,693,78
28318,1,0.60507920011878,2,6,2,694,78
28318,1,0.507149399956688,2,6,2,695,78
28318,1,0.692986899986863,3,2,3,696,78
28318,1,0.551832699915394,1,3,1,697,78
28318,1,0.703480999916792,3,2,3,698,78
28318,1,0.673844799865037,3,1,3,699,78
28318,1,0.613002700032666,2,5,2,700,78
28318,1,0.60333830001764,2,6,2,701,78
28318,1,0.537032400025055,1,4,1,702,78
28318,1,0.617555900011212,2,5,2,703,78
28318,1,0.439072400098667,2,5,2,704,78
28318,1,0.603725400054827,2,6,2,705,78
28318,1,0.577526500215754,1,3,1,706,78
28318,1,0.625080599915236,3,1,3,707,78
28318,1,0.598225000081584,1,3,1,708,78
28318,1,0.684524799929932,3,2,3,709,78
28318,1,0.599056400125846,3,1,3,710,78
28318,1,0.58913779980503,1,4,1,711,78
28318,1,0.571850799955428,2,6,2,712,78
28318,1,0.483266599941999,1,4,1,713,78
28318,1,0.629515300039202,2,5,2,714,78
28318,1,0.627063699997962,3,2,3,715,78
28318,1,0.576394499978051,2,6,2,716,78
28318,0,0.615644800011069,1,1,3,717,78
28318,1,0.701060200110078,1,3,1,718,78
28318,1,0.543030200060457,1,3,1,719,78
28318,1,0.59995699999854,3,2,3,720,78
28318,1,0.789534199982882,3,1,3,721,78
28318,1,0.596330400090665,2,5,2,722,78
28318,1,0.699257700005546,1,4,1,723,78
28318,1,0.53252899996005,2,5,2,724,78
28318,1,0.549619000172243,1,3,1,725,78
28318,1,0.525729000102729,1,4,1,726,78
28318,1,0.558763699838892,2,6,2,727,78
28318,1,0.606999100185931,2,6,2,728,78
28318,1,0.597141100093722,3,1,3,729,78
28318,1,0.595047699986026,3,2,3,730,78
28318,1,0.625454500084743,1,4,1,731,78
28318,1,0.607091999845579,3,1,3,732,78
28318,1,0.573135599959642,2,5,2,733,78
28318,1,0.596105800010264,3,2,3,734,78
28318,1,0.571119599975646,2,5,2,735,78
28318,1,0.570282199885696,1,3,1,736,78
28318,1,0.577745000133291,3,1,3,737,78
28318,1,0.696857900125906,1,4,1,738,78
28318,1,0.546998800011352,2,6,2,739,78
28318,1,0.539027700200677,3,2,3,740,78
28318,1,0.619739699875936,3,2,3,741,78
28318,0,0.504982499871403,3,1,2,742,39
28318,0,0.282812400022522,3,2,1,743,39
28318,0,0.269741399912164,3,3,1,744,39
28318,1,0.513228700030595,1,2,1,745,39
28318,0,0.498094900045544,1,1,2,746,39
28318,1,0.388167300028726,1,3,1,747,39
28318,1,0.547007099958137,1,3,1,748,39
28318,1,0.47501330007799,2,1,2,749,39
28318,1,0.478108800016344,1,2,1,750,39
28318,0,0.689917499898002,1,1,2,751,39
28318,1,0.428355599986389,1,2,1,752,39
28318,1,0.465862300014123,1,3,1,753,39
28318,1,0.348928899969906,2,1,2,754,39
28318,1,0.388746999902651,1,3,1,755,39
28318,1,0.419738800032064,1,2,1,756,39
28318,1,0.441090899985284,1,2,1,757,39
28318,1,0.437628199812025,1,3,1,758,39
28318,1,0.490394500084221,2,1,2,759,39
28318,1,0.357165700057521,1,3,1,760,39
28318,0,0.492863400140777,2,2,1,761,39
28318,0,0.431522099999711,1,1,2,762,39
28318,1,0.452556399861351,2,1,2,763,39
28318,1,0.616502400022,1,3,1,764,39
28318,1,0.357688700081781,1,2,1,765,39
28318,1,0.421711599919945,1,3,1,766,39
28318,0,0.475057800067589,2,2,1,767,39
28318,1,0.638451300095767,2,1,2,768,39
28318,1,0.506854500155896,2,1,2,769,39
28318,1,0.45303380000405,1,2,1,770,39
28318,1,0.528913199901581,1,3,1,771,39
28318,1,0.498530599987134,1,3,1,772,39
28318,0,0.628367300145328,2,2,1,773,39
28318,1,0.393727899994701,2,1,2,774,39
28318,0,0.384526200126857,1,1,2,775,39
28318,1,0.446811200119555,1,3,1,776,39
28318,0,0.515209499979392,2,2,1,777,39
28318,1,0.500518399989232,1,3,1,778,39
28318,1,0.374126000097021,1,2,1,779,39
28318,1,0.397659299895167,2,1,2,780,39
28330,0,0.55653170007281,2,1,1,1,39
28330,1,0.308413699967787,2,2,2,2,39
28330,0,0.638730800012127,3,3,2,3,39
28330,0,0.33948910003528,3,3,2,4,39
28330,0,1.02823760011233,2,1,1,5,39
28330,-1,-1,-1,3,2,6,39
28330,0,1.05143280001357,1,2,2,7,39
28330,0,1.13552070013247,2,1,1,8,39
28330,1,0.66425870009698,2,2,2,9,39
28330,0,0.939531400101259,3,1,1,10,39
28330,1,0.668169199954718,2,2,2,11,39
28330,0,0.583713999949396,1,3,2,12,39
28330,1,0.957974599907175,2,3,2,13,39
28330,1,0.534079100005329,2,2,2,14,39
28330,1,0.974981800187379,1,1,1,15,39
28330,1,0.494188599986956,2,2,2,16,39
28330,1,0.336758799850941,2,3,2,17,39
28330,1,0.321569200139493,1,1,1,18,39
28330,1,0.370968000032008,2,3,2,19,39
28330,1,0.362181700067595,2,2,2,20,39
28330,1,0.322066599968821,1,1,1,21,39
28330,1,0.379587800009176,1,1,1,22,39
28330,1,0.586771100061014,2,3,2,23,39
28330,1,0.641541999997571,1,1,1,24,39
28330,1,0.326243399875239,2,2,2,25,39
28330,1,0.487590699922293,2,2,2,26,39
28330,1,0.314227599883452,2,3,2,27,39
28330,1,0.459634999977425,2,2,2,28,39
28330,1,0.527290700003505,1,1,1,29,39
28330,1,0.392468299949542,2,3,2,30,39
28330,1,0.951704800128937,2,3,2,31,39
28330,1,0.463492699898779,2,2,2,32,39
28330,1,0.410981600172818,2,3,2,33,39
28330,1,0.568799200002104,1,1,1,34,39
28330,1,0.367911699926481,2,2,2,35,39
28330,1,0.647326100151986,1,1,1,36,39
28330,1,0.45946819987148,1,1,1,37,39
28330,1,0.431525700027123,2,3,2,38,39
28330,1,0.411906700115651,2,2,2,39,39
28330,0,0.770014500012621,2,1,1,40,78
28330,0,0.665622599888593,2,2,1,41,78
28330,1,0.412733800010756,2,3,2,42,78
28330,1,1.02692790003493,2,4,2,43,78
28330,0,1.4717665000353,2,5,3,44,78
28330,0,1.09149250015616,2,6,3,45,78
28330,0,0.598307900130749,3,1,1,46,78
28330,1,0.708259999984875,3,5,3,47,78
28330,1,0.678182400064543,2,4,2,48,78
28330,1,0.473468400072306,2,3,2,49,78
28330,0,0.316896700067446,3,2,1,50,78
28330,1,0.606296399841085,2,3,2,51,78
28330,1,0.707828499842435,2,4,2,52,78
28330,1,0.718250299803913,3,6,3,53,78
28330,1,0.591141399927437,3,6,3,54,78
28330,1,1.27822530013509,1,2,1,55,78
28330,1,0.537118199979886,1,1,1,56,78
28330,0,0.49811919988133,1,5,3,57,78
28330,1,0.70787200005725,1,1,1,58,78
28330,1,0.998156999936327,1,2,1,59,78
28330,1,0.619841299951077,2,3,2,60,78
28330,1,0.481493099825457,2,4,2,61,78
28330,0,1.33220339985564,2,5,3,62,78
28330,1,0.964604000095278,3,6,3,63,78
28330,1,0.731659200042486,1,2,1,64,78
28330,0,1.39651140011847,1,5,3,65,78
28330,1,1.4345097001642,2,3,2,66,78
28330,1,1.20748700015247,3,6,3,67,78
28330,1,0.65360979991965,2,4,2,68,78
28330,1,1.0734732998535,1,1,1,69,78
28330,1,0.660894999979064,2,4,2,70,78
28330,1,0.480875500012189,2,4,2,71,78
28330,1,1.49965430004522,1,2,1,72,78
28330,0,0.789491600124165,1,6,3,73,78
28330,0,1.09998619998805,1,5,3,74,78
28330,1,0.637853299966082,2,3,2,75,78
28330,1,1.03491590009071,1,1,1,76,78
28330,1,0.527746299980208,3,6,3,77,78
28330,1,0.576863100053743,2,3,2,78,78
28330,1,0.760154500138015,3,5,3,79,78
28330,1,0.840298699913546,1,2,1,80,78
28330,1,0.508837000001222,2,4,2,81,78
28330,1,0.878482100088149,1,2,1,82,78
28330,1,0.962297399993986,1,1,1,83,78
28330,1,0.474087199894711,1,1,1,84,78
28330,1,0.613250399939716,3,5,3,85,78
28330,1,0.52259139996022,2,3,2,86,78
28330,1,0.636188500095159,3,6,3,87,78
28330,1,0.544699100079015,3,6,3,88,78
28330,1,0.649423299822956,3,5,3,89,78
28330,1,0.549725200049579,2,4,2,90,78
28330,1,0.389434299897403,2,3,2,91,78
28330,1,0.708161799935624,1,2,1,92,78
28330,1,0.558099800022319,2,3,2,93,78
28330,1,0.894188900012523,1,1,1,94,78
28330,1,1.24884989997372,1,2,1,95,78
28330,1,0.628957000095397,3,5,3,96,78
28330,1,0.802032500039786,1,1,1,97,78
28330,1,0.512071199947968,2,4,2,98,78
28330,1,0.658157299971208,3,6,3,99,78
28330,1,0.48588820011355,2,4,2,100,78
28330,1,0.840944200055674,3,5,3,101,78
28330,1,0.62162770004943,2,3,2,102,78
28330,1,0.762780599994585,1,1,1,103,78
28330,1,0.482873900095001,1,1,1,104,78
28330,1,0.517584700137377,3,6,3,105,78
28330,0,0.430589700117707,2,2,1,106,78
28330,1,0.467453999910504,2,3,2,107,78
28330,1,0.542938099941239,3,6,3,108,78
28330,1,0.599465499864891,3,5,3,109,78
28330,1,0.941145400051028,1,2,1,110,78
28330,1,0.494138899957761,2,4,2,111,78
28330,1,0.58480600011535,2,4,2,112,78
28330,1,0.583611099980772,1,1,1,113,78
28330,1,0.798127599991858,1,2,1,114,78
28330,1,0.596243300009519,3,6,3,115,78
28330,1,0.890814000042155,1,2,1,116,78
28330,1,0.573613800108433,2,3,2,117,78
28330,0,0.506697700126097,2,1,1,118,39
28330,0,0.420977700036019,2,2,3,119,39
28330,0,0.41820319998078,2,3,3,120,39
28330,1,0.839271300006658,3,3,3,121,39
28330,0,0.620188099797815,3,1,1,122,39
28330,1,0.3934687001165,3,3,3,123,39
28330,1,0.464114899979904,3,2,3,124,39
28330,1,0.363537600031123,1,1,1,125,39
28330,1,0.386895700125024,3,2,3,126,39
28330,0,0.585673100082204,3,1,1,127,39
28330,0,1.28820710000582,1,2,3,128,39
28330,-1,-1,-1,3,3,129,39
28330,1,0.540698899887502,3,3,3,130,39
28330,1,0.589582100044936,3,2,3,131,39
28330,1,0.364335499936715,1,1,1,132,39
28330,1,0.419523500138894,3,2,3,133,39
28330,1,0.560792800039053,3,3,3,134,39
28330,1,0.336872899904847,1,1,1,135,39
28330,1,0.473394599976018,3,3,3,136,39
28330,1,0.493113900069147,3,2,3,137,39
28330,1,0.399732799967751,1,1,1,138,39
28330,1,0.557644299929962,1,1,1,139,39
28330,1,0.453271900070831,3,3,3,140,39
28330,1,0.610216500004753,1,1,1,141,39
28330,1,0.447448999853805,3,2,3,142,39
28330,1,0.427608600119129,3,2,3,143,39
28330,1,0.408624799922109,3,3,3,144,39
28330,1,0.390920500038192,3,2,3,145,39
28330,1,0.621666899882257,1,1,1,146,39
28330,0,0.474612500052899,1,3,3,147,39
28330,1,0.67827200004831,3,3,3,148,39
28330,1,0.489159699995071,3,2,3,149,39
28330,1,0.6522962001618,3,3,3,150,39
28330,1,0.344291900051758,1,1,1,151,39
28330,1,0.39292149990797,3,2,3,152,39
28330,0,0.28726979997009,3,1,1,153,39
28330,1,0.618304099887609,1,1,1,154,39
28330,1,0.519304399844259,3,3,3,155,39
28330,1,0.960861700121313,3,2,3,156,39
28330,0,0.964612800162286,1,1,2,157,39
28330,0,0.524092499865219,1,2,2,158,39
28330,1,0.525450800079852,1,3,1,159,39
28330,1,0.64657049998641,1,3,1,160,39
28330,0,0.410864399978891,3,1,2,161,39
28330,0,0.416674900101498,3,3,1,162,39
28330,0,0.582120600156486,3,2,2,163,39
28330,0,0.48454220010899,1,1,2,164,39
28330,-1,-1,-1,2,2,165,39
28330,0,0.873698899988085,1,1,2,166,39
28330,-1,-1,-1,2,2,167,39
28330,0,0.518613300053403,2,3,1,168,39
28330,0,0.384478599997237,2,3,1,169,39
28330,1,0.398541799979284,2,2,2,170,39
28330,0,0.564936899812892,1,1,2,171,39
28330,1,1.12397620012052,2,2,2,172,39
28330,0,0.517477900022641,3,3,1,173,39
28330,0,0.630918100010604,3,1,2,174,39
28330,1,0.88336249999702,1,3,1,175,39
28330,1,0.478164199972525,2,2,2,176,39
28330,1,0.353069900069386,2,1,2,177,39
28330,1,0.345500300172716,2,1,2,178,39
28330,1,0.51430179993622,1,3,1,179,39
28330,1,0.691441499860957,2,1,2,180,39
28330,1,0.382233500014991,2,2,2,181,39
28330,0,0.349012400023639,1,2,2,182,39
28330,1,0.660688200034201,1,3,1,183,39
28330,1,0.280658900039271,2,2,2,184,39
28330,1,0.307475500041619,2,1,2,185,39
28330,0,0.581370600033551,2,3,1,186,39
28330,1,0.580362799810246,1,3,1,187,39
28330,1,0.483153200009838,2,2,2,188,39
28330,1,0.645646499935538,1,3,1,189,39
28330,1,0.602368100080639,2,1,2,190,39
28330,1,0.50422739982605,2,2,2,191,39
28330,1,0.729906799970195,2,1,2,192,39
28330,0,0.306793500203639,1,1,2,193,39
28330,1,0.532535000005737,1,3,1,194,39
28330,1,0.629540499998257,2,2,2,195,39
28330,1,0.644874300109223,2,1,2,196,78
28330,1,0.777267700061202,2,2,2,197,78
28330,0,1.20877269981429,2,3,3,198,78
28330,0,0.99896219978109,2,4,3,199,78
28330,0,0.589045299915597,2,5,1,200,78
28330,0,0.579731300007552,2,6,1,201,78
28330,1,0.706875500036404,2,1,2,202,78
28330,0,0.724796100053936,3,5,1,203,78
28330,1,0.501976100029424,3,4,3,204,78
28330,0,1.4721687999554,2,3,3,205,78
28330,1,0.635487100109458,2,2,2,206,78
28330,1,0.760336700128391,3,3,3,207,78
28330,1,0.552006099838763,3,4,3,208,78
28330,-1,-1,-1,6,1,209,78
28330,0,0.721946300007403,2,6,1,210,78
28330,1,0.931259300094098,2,2,2,211,78
28330,1,0.380376700079069,2,1,2,212,78
28330,1,0.8907981000375,1,5,1,213,78
28330,1,0.621496800100431,2,1,2,214,78
28330,1,0.594995699822903,2,2,2,215,78
28330,1,0.593548599863425,3,3,3,216,78
28330,1,0.448117399821058,3,4,3,217,78
28330,1,0.84382599988021,1,5,1,218,78
28330,1,0.488904400030151,1,6,1,219,78
28330,1,0.587670500157401,2,2,2,220,78
28330,1,0.642087800195441,1,5,1,221,78
28330,1,0.726824700133875,3,3,3,222,78
28330,1,0.58395990007557,1,6,1,223,78
28330,1,0.566831500036642,3,4,3,224,78
28330,1,0.518447799840942,2,1,2,225,78
28330,1,0.575584599981084,3,4,3,226,78
28330,1,0.51080619986169,3,4,3,227,78
28330,1,0.552711599972099,2,2,2,228,78
28330,1,0.576835399959236,1,6,1,229,78
28330,1,0.792056200094521,1,5,1,230,78
28330,1,0.790739000076428,3,3,3,231,78
28330,1,0.477352799847722,2,1,2,232,78
28330,1,0.54492440004833,1,6,1,233,78
28330,1,0.665523000061512,3,3,3,234,78
28330,1,0.476810799911618,1,5,1,235,78
28330,1,0.512234999798238,2,2,2,236,78
28330,0,0.554328299826011,2,4,3,237,78
28330,1,0.641875500092283,2,2,2,238,78
28330,1,0.494893499882892,2,1,2,239,78
28330,1,0.465340199880302,2,1,2,240,78
28330,1,0.661009199917316,1,5,1,241,78
28330,0,0.664838900091127,1,3,3,242,78
28330,1,1.15623389999382,1,6,1,243,78
28330,1,0.716267900075763,1,6,1,244,78
28330,1,0.581293599912897,1,5,1,245,78
28330,1,0.436317000072449,3,4,3,246,78
28330,1,0.416878600139171,3,3,3,247,78
28330,1,0.60625970014371,2,2,2,248,78
28330,1,0.475929399952292,3,3,3,249,78
